ExactAge,AgeGroup,rt,response,left_face,right_face,correct_face,rand_num,rt_window,reward,pair_type,acc,rt_nolates,trial_num,instance,block_num,condition,StudyID
20.904109589041095,Adults,1724,f,CONcon_HappyReward,conCON_FearZero,left_face,0.30174700011610023,on_time,1,cc,1,1724,7,1,1,H+F-,1
20.904109589041095,Adults,1350,j,conCON_FearZero,CONcon_HappyReward,right_face,0.8383583754505735,on_time,0,cc,1,1350,12,2,1,H+F-,1
20.904109589041095,Adults,2521,f,conCON_FearZero,CONcon_HappyReward,right_face,0.6931563359211137,on_time,0,cc,0,2521,15,3,1,H+F-,1
20.904109589041095,Adults,1538,f,conCON_FearZero,CONcon_HappyReward,right_face,0.33153788971649867,late_choose_now,0,cc,0,NA,21,4,1,H+F-,1
20.904109589041095,Adults,1205,j,CONcon_HappyReward,conCON_FearZero,left_face,0.3859179258432537,on_time,0,cc,0,1205,23,5,1,H+F-,1
20.904109589041095,Adults,981,f,CONcon_HappyReward,conCON_FearZero,left_face,0.7311394050551536,on_time,1,cc,1,981,24,6,1,H+F-,1
20.904109589041095,Adults,1401,j,conCON_FearZero,CONcon_HappyReward,right_face,0.9759617310401496,on_time,0,cc,1,1401,28,7,1,H+F-,1
20.904109589041095,Adults,2058,j,CONcon_HappyReward,conCON_FearZero,left_face,0.819770091747275,on_time,1,cc,0,2058,42,8,1,H+F-,1
20.904109589041095,Adults,2071,j,conCON_FearZero,CONcon_HappyReward,right_face,0.5168199507270552,on_time,1,cc,1,2071,45,9,1,H+F-,1
20.904109589041095,Adults,1296,j,conCON_FearZero,CONcon_HappyReward,right_face,0.696556383021883,on_time,1,cc,1,1296,50,10,2,H+F-,1
20.904109589041095,Adults,847,f,CONcon_HappyReward,conCON_FearZero,left_face,0.06939538457832395,on_time,1,cc,1,847,52,11,2,H+F-,1
20.904109589041095,Adults,1413,j,conCON_FearZero,CONcon_HappyReward,right_face,0.7476397308426572,on_time,1,cc,1,1413,53,12,2,H+F-,1
20.904109589041095,Adults,728,j,conCON_FearZero,CONcon_HappyReward,right_face,0.00634021956686448,on_time,1,cc,1,728,56,13,2,H+F-,1
20.904109589041095,Adults,1039,j,conCON_FearZero,CONcon_HappyReward,right_face,0.5775676865581152,on_time,1,cc,1,1039,57,14,2,H+F-,1
20.904109589041095,Adults,2595,f,CONcon_HappyReward,conCON_FearZero,left_face,0.42501635466497056,on_time,1,cc,1,2595,60,15,2,H+F-,1
20.904109589041095,Adults,2418,f,CONcon_HappyReward,conCON_FearZero,left_face,0.9819931352758277,on_time,0,cc,1,2418,69,16,2,H+F-,1
20.904109589041095,Adults,1275,j,CONcon_HappyReward,conCON_FearZero,left_face,0.5481449837192907,on_time,0,cc,0,1275,73,17,2,H+F-,1
20.904109589041095,Adults,475,j,CONcon_HappyReward,conCON_FearZero,left_face,0.08788285893095571,on_time,0,cc,0,475,74,18,2,H+F-,1
20.904109589041095,Adults,1103,j,CONcon_HappyReward,conCON_FearZero,left_face,0.571531815998856,on_time,0,cc,0,1103,78,19,3,H+F-,1
20.904109589041095,Adults,759,f,CONcon_HappyReward,conCON_FearZero,left_face,0.36558478755816814,on_time,1,cc,1,759,82,20,3,H+F-,1
20.904109589041095,Adults,1032,f,CONcon_HappyReward,conCON_FearZero,left_face,0.541377358049181,on_time,1,cc,1,1032,83,21,3,H+F-,1
20.904109589041095,Adults,944,j,conCON_FearZero,CONcon_HappyReward,right_face,0.6675985445737456,on_time,1,cc,1,944,84,22,3,H+F-,1
20.904109589041095,Adults,1351,j,conCON_FearZero,CONcon_HappyReward,right_face,0.9715710437308528,on_time,0,cc,1,1351,87,23,3,H+F-,1
20.904109589041095,Adults,2864,f,CONcon_HappyReward,conCON_FearZero,left_face,0.2093312013552382,on_time,1,cc,1,2864,92,24,3,H+F-,1
20.904109589041095,Adults,2603,f,CONcon_HappyReward,conCON_FearZero,left_face,0.2544572242010288,on_time,1,cc,1,2603,95,25,3,H+F-,1
20.904109589041095,Adults,2324,f,CONcon_HappyReward,conCON_FearZero,left_face,0.8874747620519217,on_time,0,cc,1,2324,101,26,3,H+F-,1
20.904109589041095,Adults,1320,f,conCON_FearZero,CONcon_HappyReward,right_face,0.7845773770456062,on_time,1,cc,0,1320,113,27,3,H+F-,1
20.904109589041095,Adults,704,f,conCON_FearZero,CONcon_HappyReward,right_face,0.8530942699431092,on_time,1,cc,0,704,114,28,4,H+F-,1
20.904109589041095,Adults,1322,f,conCON_FearZero,CONcon_HappyReward,right_face,0.8605612296158676,on_time,1,cc,0,1322,117,29,4,H+F-,1
20.904109589041095,Adults,1250,j,CONcon_HappyReward,conCON_FearZero,left_face,0.0109486135132526,on_time,0,cc,0,1250,120,30,4,H+F-,1
20.904109589041095,Adults,2052,f,CONcon_HappyReward,conCON_FearZero,left_face,0.821062115688771,on_time,0,cc,1,2052,121,31,4,H+F-,1
20.904109589041095,Adults,983,j,CONcon_HappyReward,conCON_FearZero,left_face,0.6290188564026571,on_time,0,cc,0,983,129,32,4,H+F-,1
20.904109589041095,Adults,1264,f,conCON_FearZero,CONcon_HappyReward,right_face,0.7073045870714041,on_time,0,cc,0,1264,132,33,4,H+F-,1
20.904109589041095,Adults,1215,j,CONcon_HappyReward,conCON_FearZero,left_face,0.1667379635132964,on_time,0,cc,0,1215,135,34,4,H+F-,1
20.904109589041095,Adults,1212,j,conCON_FearZero,CONcon_HappyReward,right_face,0.05811907875970124,on_time,1,cc,1,1212,143,35,4,H+F-,1
20.904109589041095,Adults,1549,f,CONcon_HappyReward,conCON_FearZero,left_face,0.4273806438782175,on_time,1,cc,1,1549,148,36,4,H+F-,1
20.904109589041095,Adults,1271,f,CONcon_HappyReward,conCON_FearZero,left_face,0.8275097244365144,on_time,0,cc,1,1271,150,37,5,H+F-,1
20.904109589041095,Adults,2230,f,CONcon_HappyReward,conCON_FearZero,left_face,0.9156097587489124,on_time,0,cc,1,2230,158,38,5,H+F-,1
20.904109589041095,Adults,1192,j,conCON_FearZero,CONcon_HappyReward,right_face,0.2734065267905954,on_time,1,cc,1,1192,160,39,5,H+F-,1
20.904109589041095,Adults,2277,j,conCON_FearZero,CONcon_HappyReward,right_face,0.5378941817893503,on_time,1,cc,1,2277,162,40,5,H+F-,1
20.904109589041095,Adults,2442,j,conCON_FearZero,CONcon_HappyReward,right_face,0.957537935360661,on_time,0,cc,1,2442,167,41,5,H+F-,1
20.904109589041095,Adults,2013,f,conCON_FearZero,CONcon_HappyReward,right_face,0.4931316364228104,on_time,0,cc,0,2013,171,42,5,H+F-,1
20.904109589041095,Adults,1995,j,conCON_FearZero,CONcon_HappyReward,right_face,0.4931612338511555,on_time,1,cc,1,1995,174,43,5,H+F-,1
20.904109589041095,Adults,1349,j,conCON_FearZero,CONcon_HappyReward,right_face,0.7980841524835447,on_time,0,cc,1,1349,178,44,5,H+F-,1
20.904109589041095,Adults,914,j,conCON_FearZero,CONcon_HappyReward,right_face,0.02690579821547234,on_time,1,cc,1,914,179,45,5,H+F-,1
20.904109589041095,Adults,2858,f,conINCON_HappyZero,CONincon_HappyReward,right_face,0.05425208686431082,on_time,0,ci,0,2858,2,1,1,H+H-,1
20.904109589041095,Adults,1480,j,CONincon_HappyReward,conINCON_HappyZero,left_face,0.19410613090939433,on_time,0,ci,0,1480,9,2,1,H+H-,1
20.904109589041095,Adults,2677,f,CONincon_HappyReward,conINCON_HappyZero,left_face,0.6939246885666648,on_time,1,ci,1,2677,17,3,1,H+H-,1
20.904109589041095,Adults,1655,j,CONincon_HappyReward,conINCON_HappyZero,left_face,0.02007931955328512,on_time,0,ci,0,1655,22,4,1,H+H-,1
20.904109589041095,Adults,2532,j,conINCON_HappyZero,CONincon_HappyReward,right_face,0.7346991150758291,on_time,1,ci,1,2532,29,5,1,H+H-,1
20.904109589041095,Adults,1209,j,conINCON_HappyZero,CONincon_HappyReward,right_face,0.34519947952368235,on_time,1,ci,1,1209,30,6,1,H+H-,1
20.904109589041095,Adults,2273,j,CONincon_HappyReward,conINCON_HappyZero,left_face,0.8429725410073687,on_time,1,ci,0,2273,31,7,1,H+H-,1
20.904109589041095,Adults,706,j,CONincon_HappyReward,conINCON_HappyZero,left_face,0.7083854949077435,on_time,0,ci,0,706,32,8,1,H+H-,1
20.904109589041095,Adults,449,j,CONincon_HappyReward,conINCON_HappyZero,left_face,0.18526041310610397,late_choose_now,0,ci,0,NA,35,9,1,H+H-,1
20.904109589041095,Adults,1329,j,conINCON_HappyZero,CONincon_HappyReward,right_face,0.35878596373611016,on_time,1,ci,1,1329,36,10,2,H+H-,1
20.904109589041095,Adults,2162,f,conINCON_HappyZero,CONincon_HappyReward,right_face,0.5241004428758671,on_time,0,ci,0,2162,38,11,2,H+H-,1
20.904109589041095,Adults,2808,f,conINCON_HappyZero,CONincon_HappyReward,right_face,0.9514616051625212,on_time,1,ci,0,2808,41,12,2,H+H-,1
20.904109589041095,Adults,2360,f,CONincon_HappyReward,conINCON_HappyZero,left_face,0.7967179045184953,on_time,0,ci,1,2360,47,13,2,H+H-,1
20.904109589041095,Adults,1578,j,conINCON_HappyZero,CONincon_HappyReward,right_face,0.04142329041754356,on_time,1,ci,1,1578,48,14,2,H+H-,1
20.904109589041095,Adults,1852,j,CONincon_HappyReward,conINCON_HappyZero,left_face,0.05546301177521862,on_time,0,ci,0,1852,51,15,2,H+H-,1
20.904109589041095,Adults,1370,j,CONincon_HappyReward,conINCON_HappyZero,left_face,0.17470187317688457,on_time,0,ci,0,1370,63,16,2,H+H-,1
20.904109589041095,Adults,993,f,CONincon_HappyReward,conINCON_HappyZero,left_face,0.6014957284002607,on_time,1,ci,1,993,64,17,2,H+H-,1
20.904109589041095,Adults,1237,f,conINCON_HappyZero,CONincon_HappyReward,right_face,0.3025616371126867,on_time,0,ci,0,1237,65,18,2,H+H-,1
20.904109589041095,Adults,1670,f,CONincon_HappyReward,conINCON_HappyZero,left_face,0.4282316629951573,on_time,1,ci,1,1670,70,19,3,H+H-,1
20.904109589041095,Adults,1290,f,CONincon_HappyReward,conINCON_HappyZero,left_face,0.6146088554560258,late_choose_now,1,ci,1,NA,79,20,3,H+H-,1
20.904109589041095,Adults,1070,f,CONincon_HappyReward,conINCON_HappyZero,left_face,0.49039304032740905,late_choose_now,1,ci,1,NA,86,21,3,H+H-,1
20.904109589041095,Adults,1127,f,CONincon_HappyReward,conINCON_HappyZero,left_face,0.8953740134103898,on_time,0,ci,1,1127,94,22,3,H+H-,1
20.904109589041095,Adults,1729,f,CONincon_HappyReward,conINCON_HappyZero,left_face,0.7705309844222241,on_time,0,ci,1,1729,96,23,3,H+H-,1
20.904109589041095,Adults,1138,j,CONincon_HappyReward,conINCON_HappyZero,left_face,0.8064850913653139,on_time,1,ci,0,1138,97,24,3,H+H-,1
20.904109589041095,Adults,1090,j,CONincon_HappyReward,conINCON_HappyZero,left_face,0.9552815114873624,on_time,1,ci,0,1090,100,25,3,H+H-,1
20.904109589041095,Adults,1359,j,CONincon_HappyReward,conINCON_HappyZero,left_face,0.29901109594879327,on_time,0,ci,0,1359,107,26,3,H+H-,1
20.904109589041095,Adults,1310,f,CONincon_HappyReward,conINCON_HappyZero,left_face,0.34748859592974735,on_time,1,ci,1,1310,109,27,3,H+H-,1
20.904109589041095,Adults,1438,j,conINCON_HappyZero,CONincon_HappyReward,right_face,0.7471968888442337,on_time,1,ci,1,1438,111,28,4,H+H-,1
20.904109589041095,Adults,2312,j,conINCON_HappyZero,CONincon_HappyReward,right_face,0.7878663347114201,on_time,0,ci,1,2312,116,29,4,H+H-,1
20.904109589041095,Adults,1487,f,conINCON_HappyZero,CONincon_HappyReward,right_face,0.28569011244474374,on_time,0,ci,0,1487,118,30,4,H+H-,1
20.904109589041095,Adults,1846,f,conINCON_HappyZero,CONincon_HappyReward,right_face,0.4422920503543694,on_time,0,ci,0,1846,122,31,4,H+H-,1
20.904109589041095,Adults,1406,f,CONincon_HappyReward,conINCON_HappyZero,left_face,0.4185670626089779,on_time,1,ci,1,1406,124,32,4,H+H-,1
20.904109589041095,Adults,1087,j,CONincon_HappyReward,conINCON_HappyZero,left_face,0.4538836055642148,on_time,0,ci,0,1087,127,33,4,H+H-,1
20.904109589041095,Adults,2856,j,conINCON_HappyZero,CONincon_HappyReward,right_face,0.28659453373074606,on_time,1,ci,1,2856,128,34,4,H+H-,1
20.904109589041095,Adults,637,j,conINCON_HappyZero,CONincon_HappyReward,right_face,0.4374840382823686,late_choose_now,1,ci,1,NA,133,35,4,H+H-,1
20.904109589041095,Adults,1844,j,conINCON_HappyZero,CONincon_HappyReward,right_face,0.18537551170026623,on_time,1,ci,1,1844,134,36,4,H+H-,1
20.904109589041095,Adults,1462,j,conINCON_HappyZero,CONincon_HappyReward,right_face,0.5216691700489811,on_time,1,ci,1,1462,138,37,5,H+H-,1
20.904109589041095,Adults,1248,f,CONincon_HappyReward,conINCON_HappyZero,left_face,0.14349960642902926,on_time,1,ci,1,1248,144,38,5,H+H-,1
20.904109589041095,Adults,1137,f,CONincon_HappyReward,conINCON_HappyZero,left_face,0.5881358937596577,on_time,1,ci,1,1137,152,39,5,H+H-,1
20.904109589041095,Adults,2487,j,conINCON_HappyZero,CONincon_HappyReward,right_face,0.6775291388233433,on_time,1,ci,1,2487,156,40,5,H+H-,1
20.904109589041095,Adults,1660,f,CONincon_HappyReward,conINCON_HappyZero,left_face,0.6404092778082286,on_time,1,ci,1,1660,161,41,5,H+H-,1
20.904109589041095,Adults,245,f,CONincon_HappyReward,conINCON_HappyZero,left_face,0.8364337599776841,late_choose_now,0,ci,1,NA,170,42,5,H+H-,1
20.904109589041095,Adults,1296,j,conINCON_HappyZero,CONincon_HappyReward,right_face,0.4155241574769624,on_time,1,ci,1,1296,173,43,5,H+H-,1
20.904109589041095,Adults,911,j,conINCON_HappyZero,CONincon_HappyReward,right_face,0.36179569782453824,on_time,1,ci,1,911,175,44,5,H+H-,1
20.904109589041095,Adults,1094,f,CONincon_HappyReward,conINCON_HappyZero,left_face,0.9808374103131275,on_time,0,ci,1,1094,177,45,5,H+H-,1
20.904109589041095,Adults,279,f,INCONcon_FearReward,inconCON_FearZero,left_face,0.719807744137442,late_choose_now,1,ic,1,NA,1,1,1,F+F-,1
20.904109589041095,Adults,1704,f,INCONcon_FearReward,inconCON_FearZero,left_face,0.615406412713529,on_time,1,ic,1,1704,3,2,1,F+F-,1
20.904109589041095,Adults,1197,j,inconCON_FearZero,INCONcon_FearReward,right_face,0.7133283796516205,on_time,1,ic,1,1197,4,3,1,F+F-,1
20.904109589041095,Adults,802,j,inconCON_FearZero,INCONcon_FearReward,right_face,0.7885234219925825,on_time,0,ic,1,802,5,4,1,F+F-,1
20.904109589041095,Adults,938,f,INCONcon_FearReward,inconCON_FearZero,left_face,0.7830652851677331,on_time,0,ic,1,938,6,5,1,F+F-,1
20.904109589041095,Adults,789,j,inconCON_FearZero,INCONcon_FearReward,right_face,0.7580530798869125,on_time,0,ic,1,789,11,6,1,F+F-,1
20.904109589041095,Adults,1690,j,INCONcon_FearReward,inconCON_FearZero,left_face,0.787979109754062,on_time,1,ic,0,1690,13,7,1,F+F-,1
20.904109589041095,Adults,1719,f,inconCON_FearZero,INCONcon_FearReward,right_face,0.6882265429190595,on_time,0,ic,0,1719,14,8,1,F+F-,1
20.904109589041095,Adults,1344,j,inconCON_FearZero,INCONcon_FearReward,right_face,0.19317700721353617,on_time,1,ic,1,1344,16,9,1,F+F-,1
20.904109589041095,Adults,1560,f,inconCON_FearZero,INCONcon_FearReward,right_face,0.2765751807544474,on_time,0,ic,0,1560,18,10,2,F+F-,1
20.904109589041095,Adults,2939,f,INCONcon_FearReward,inconCON_FearZero,left_face,0.4838438151797195,on_time,1,ic,1,2939,33,11,2,F+F-,1
20.904109589041095,Adults,1991,j,inconCON_FearZero,INCONcon_FearReward,right_face,0.2976218746438348,on_time,1,ic,1,1991,39,12,2,F+F-,1
20.904109589041095,Adults,982,f,inconCON_FearZero,INCONcon_FearReward,right_face,0.8180397876729657,on_time,1,ic,0,982,40,13,2,F+F-,1
20.904109589041095,Adults,2372,j,inconCON_FearZero,INCONcon_FearReward,right_face,0.4989959821340064,on_time,1,ic,1,2372,46,14,2,F+F-,1
20.904109589041095,Adults,2085,j,inconCON_FearZero,INCONcon_FearReward,right_face,0.469664351611784,on_time,1,ic,1,2085,55,15,2,F+F-,1
20.904109589041095,Adults,1259,j,INCONcon_FearReward,inconCON_FearZero,left_face,0.6727700795562481,on_time,0,ic,0,1259,66,16,2,F+F-,1
20.904109589041095,Adults,610,f,INCONcon_FearReward,inconCON_FearZero,left_face,0.5938392250312565,on_time,1,ic,1,610,67,17,2,F+F-,1
20.904109589041095,Adults,753,j,inconCON_FearZero,INCONcon_FearReward,right_face,0.10579695513826248,on_time,1,ic,1,753,68,18,2,F+F-,1
20.904109589041095,Adults,2526,f,INCONcon_FearReward,inconCON_FearZero,left_face,0.6611968574707767,on_time,1,ic,1,2526,71,19,3,F+F-,1
20.904109589041095,Adults,1118,f,INCONcon_FearReward,inconCON_FearZero,left_face,0.25125533561824076,on_time,1,ic,1,1118,72,20,3,F+F-,1
20.904109589041095,Adults,1239,j,inconCON_FearZero,INCONcon_FearReward,right_face,0.7219226544200343,on_time,1,ic,1,1239,81,21,3,F+F-,1
20.904109589041095,Adults,1078,f,INCONcon_FearReward,inconCON_FearZero,left_face,0.7271053667007807,on_time,1,ic,1,1078,90,22,3,F+F-,1
20.904109589041095,Adults,1000,f,INCONcon_FearReward,inconCON_FearZero,left_face,0.29695350946669397,on_time,1,ic,1,1000,93,23,3,F+F-,1
20.904109589041095,Adults,1694,f,INCONcon_FearReward,inconCON_FearZero,left_face,0.13114811976018115,on_time,1,ic,1,1694,98,24,3,F+F-,1
20.904109589041095,Adults,1056,f,INCONcon_FearReward,inconCON_FearZero,left_face,0.9539827238175108,on_time,0,ic,1,1056,99,25,3,F+F-,1
20.904109589041095,Adults,1291,f,INCONcon_FearReward,inconCON_FearZero,left_face,0.48357617112807194,on_time,1,ic,1,1291,103,26,3,F+F-,1
20.904109589041095,Adults,773,j,inconCON_FearZero,INCONcon_FearReward,right_face,0.3746954346456661,on_time,1,ic,1,773,105,27,3,F+F-,1
20.904109589041095,Adults,1008,j,inconCON_FearZero,INCONcon_FearReward,right_face,0.47012197042520887,on_time,1,ic,1,1008,112,28,4,F+F-,1
20.904109589041095,Adults,1038,j,inconCON_FearZero,INCONcon_FearReward,right_face,0.7707489542403183,on_time,0,ic,1,1038,115,29,4,F+F-,1
20.904109589041095,Adults,1142,j,inconCON_FearZero,INCONcon_FearReward,right_face,0.920223652845019,on_time,0,ic,1,1142,119,30,4,F+F-,1
20.904109589041095,Adults,1522,f,inconCON_FearZero,INCONcon_FearReward,right_face,0.8696245761511385,on_time,1,ic,0,1522,125,31,4,F+F-,1
20.904109589041095,Adults,1585,f,inconCON_FearZero,INCONcon_FearReward,right_face,0.9916663270060968,on_time,1,ic,0,1585,130,32,4,F+F-,1
20.904109589041095,Adults,2240,f,inconCON_FearZero,INCONcon_FearReward,right_face,0.8672046493057799,on_time,1,ic,0,2240,136,33,4,F+F-,1
20.904109589041095,Adults,872,f,inconCON_FearZero,INCONcon_FearReward,right_face,0.468106807900611,on_time,0,ic,0,872,137,34,4,F+F-,1
20.904109589041095,Adults,1361,f,inconCON_FearZero,INCONcon_FearReward,right_face,0.5828544478955926,on_time,0,ic,0,1361,140,35,4,F+F-,1
20.904109589041095,Adults,1363,j,inconCON_FearZero,INCONcon_FearReward,right_face,0.8439952957283332,on_time,0,ic,1,1363,142,36,4,F+F-,1
20.904109589041095,Adults,1840,j,INCONcon_FearReward,inconCON_FearZero,left_face,0.10493692740462857,on_time,0,ic,0,1840,153,37,5,F+F-,1
20.904109589041095,Adults,874,f,INCONcon_FearReward,inconCON_FearZero,left_face,0.04201621122208165,on_time,1,ic,1,874,154,38,5,F+F-,1
20.904109589041095,Adults,994,f,INCONcon_FearReward,inconCON_FearZero,left_face,0.12419883144337908,on_time,1,ic,1,994,157,39,5,F+F-,1
20.904109589041095,Adults,79,f,INCONcon_FearReward,inconCON_FearZero,left_face,0.0622797274503486,late_choose_now,1,ic,1,NA,163,40,5,F+F-,1
20.904109589041095,Adults,933,j,inconCON_FearZero,INCONcon_FearReward,right_face,0.8747141873815953,on_time,0,ic,1,933,164,41,5,F+F-,1
20.904109589041095,Adults,817,f,INCONcon_FearReward,inconCON_FearZero,left_face,0.9505591556869946,on_time,0,ic,1,817,165,42,5,F+F-,1
20.904109589041095,Adults,629,j,INCONcon_FearReward,inconCON_FearZero,left_face,0.3942939379684874,on_time,0,ic,0,629,166,43,5,F+F-,1
20.904109589041095,Adults,1685,j,inconCON_FearZero,INCONcon_FearReward,right_face,0.31991374211943757,on_time,1,ic,1,1685,172,44,5,F+F-,1
20.904109589041095,Adults,1553,j,inconCON_FearZero,INCONcon_FearReward,right_face,0.9107824729382888,on_time,0,ic,1,1553,180,45,5,F+F-,1
20.904109589041095,Adults,1632,j,INCONincon_FearReward,inconINCON_HappyZero,left_face,0.260086271848172,on_time,0,ii,0,1632,8,1,1,F+H-,1
20.904109589041095,Adults,1425,f,inconINCON_HappyZero,INCONincon_FearReward,right_face,0.8237427034273932,on_time,1,ii,0,1425,10,2,1,F+H-,1
20.904109589041095,Adults,1966,f,inconINCON_HappyZero,INCONincon_FearReward,right_face,0.7079105686015537,on_time,0,ii,0,1966,19,3,1,F+H-,1
20.904109589041095,Adults,2563,f,INCONincon_FearReward,inconINCON_HappyZero,left_face,0.9203975314364136,on_time,0,ii,1,2563,20,4,1,F+H-,1
20.904109589041095,Adults,572,f,inconINCON_HappyZero,INCONincon_FearReward,right_face,0.9297940747362096,late_choose_now,1,ii,0,NA,25,5,1,F+H-,1
20.904109589041095,Adults,1046,f,inconINCON_HappyZero,INCONincon_FearReward,right_face,0.00679844836622556,on_time,0,ii,0,1046,26,6,1,F+H-,1
20.904109589041095,Adults,2929,j,INCONincon_FearReward,inconINCON_HappyZero,left_face,0.6020337891057055,on_time,0,ii,0,2929,27,7,1,F+H-,1
20.904109589041095,Adults,2106,f,INCONincon_FearReward,inconINCON_HappyZero,left_face,0.4310960326581064,on_time,1,ii,1,2106,34,8,1,F+H-,1
20.904109589041095,Adults,2358,j,inconINCON_HappyZero,INCONincon_FearReward,right_face,0.9650579112247836,on_time,0,ii,1,2358,37,9,1,F+H-,1
20.904109589041095,Adults,2339,j,INCONincon_FearReward,inconINCON_HappyZero,left_face,0.21324182527605728,on_time,0,ii,0,2339,43,10,2,F+H-,1
20.904109589041095,Adults,953,j,inconINCON_HappyZero,INCONincon_FearReward,right_face,0.2968287080147094,on_time,1,ii,1,953,44,11,2,F+H-,1
20.904109589041095,Adults,1695,j,inconINCON_HappyZero,INCONincon_FearReward,right_face,0.7918739373983763,on_time,0,ii,1,1695,49,12,2,F+H-,1
20.904109589041095,Adults,1405,j,INCONincon_FearReward,inconINCON_HappyZero,left_face,0.8925183167938822,on_time,1,ii,0,1405,54,13,2,F+H-,1
20.904109589041095,Adults,660,j,INCONincon_FearReward,inconINCON_HappyZero,left_face,0.06520801920449704,on_time,0,ii,0,660,58,14,2,F+H-,1
20.904109589041095,Adults,987,f,INCONincon_FearReward,inconINCON_HappyZero,left_face,0.9208120595723676,on_time,0,ii,1,987,59,15,2,F+H-,1
20.904109589041095,Adults,2484,j,INCONincon_FearReward,inconINCON_HappyZero,left_face,0.996143158737984,on_time,1,ii,0,2484,61,16,2,F+H-,1
20.904109589041095,Adults,1241,f,inconINCON_HappyZero,INCONincon_FearReward,right_face,0.32944056745439476,on_time,0,ii,0,1241,62,17,2,F+H-,1
20.904109589041095,Adults,2742,f,inconINCON_HappyZero,INCONincon_FearReward,right_face,0.4516661062596776,on_time,0,ii,0,2742,75,18,2,F+H-,1
20.904109589041095,Adults,1022,f,INCONincon_FearReward,inconINCON_HappyZero,left_face,0.4563145716931891,on_time,1,ii,1,1022,76,19,3,F+H-,1
20.904109589041095,Adults,1008,j,inconINCON_HappyZero,INCONincon_FearReward,right_face,0.7332430764885853,on_time,1,ii,1,1008,77,20,3,F+H-,1
20.904109589041095,Adults,93,j,inconINCON_HappyZero,INCONincon_FearReward,right_face,0.6109020723455556,late_choose_now,1,ii,1,NA,80,21,3,F+H-,1
20.904109589041095,Adults,1622,j,inconINCON_HappyZero,INCONincon_FearReward,right_face,0.9940287908697452,on_time,0,ii,1,1622,85,22,3,F+H-,1
20.904109589041095,Adults,1697,j,inconINCON_HappyZero,INCONincon_FearReward,right_face,0.8510541156509295,on_time,0,ii,1,1697,88,23,3,F+H-,1
20.904109589041095,Adults,2794,j,inconINCON_HappyZero,INCONincon_FearReward,right_face,0.5259090251195615,on_time,1,ii,1,2794,89,24,3,F+H-,1
20.904109589041095,Adults,2263,f,INCONincon_FearReward,inconINCON_HappyZero,left_face,0.9232207317150288,on_time,0,ii,1,2263,91,25,3,F+H-,1
20.904109589041095,Adults,2467,f,INCONincon_FearReward,inconINCON_HappyZero,left_face,0.4099913236166557,on_time,1,ii,1,2467,102,26,3,F+H-,1
20.904109589041095,Adults,1568,f,INCONincon_FearReward,inconINCON_HappyZero,left_face,0.22958662080177408,on_time,1,ii,1,1568,104,27,3,F+H-,1
20.904109589041095,Adults,673,f,INCONincon_FearReward,inconINCON_HappyZero,left_face,0.7987271143709458,on_time,0,ii,1,673,106,28,4,F+H-,1
20.904109589041095,Adults,1301,j,inconINCON_HappyZero,INCONincon_FearReward,right_face,0.5385544342796647,on_time,1,ii,1,1301,108,29,4,F+H-,1
20.904109589041095,Adults,998,j,inconINCON_HappyZero,INCONincon_FearReward,right_face,0.16840111940026037,on_time,1,ii,1,998,110,30,4,F+H-,1
20.904109589041095,Adults,1018,j,INCONincon_FearReward,inconINCON_HappyZero,left_face,0.09604272042132211,on_time,0,ii,0,1018,123,31,4,F+H-,1
20.904109589041095,Adults,985,j,inconINCON_HappyZero,INCONincon_FearReward,right_face,0.06111475551356271,on_time,1,ii,1,985,126,32,4,F+H-,1
20.904109589041095,Adults,1414,j,inconINCON_HappyZero,INCONincon_FearReward,right_face,0.6334263081420113,on_time,1,ii,1,1414,131,33,4,F+H-,1
20.904109589041095,Adults,1279,j,inconINCON_HappyZero,INCONincon_FearReward,right_face,0.42475219019470534,on_time,1,ii,1,1279,139,34,4,F+H-,1
20.904109589041095,Adults,2169,f,INCONincon_FearReward,inconINCON_HappyZero,left_face,0.9910440464665352,on_time,0,ii,1,2169,141,35,4,F+H-,1
20.904109589041095,Adults,1229,j,inconINCON_HappyZero,INCONincon_FearReward,right_face,0.7887335883986233,on_time,0,ii,1,1229,145,36,4,F+H-,1
20.904109589041095,Adults,1788,j,INCONincon_FearReward,inconINCON_HappyZero,left_face,0.5256324316610261,on_time,0,ii,0,1788,146,37,5,F+H-,1
20.904109589041095,Adults,1479,j,inconINCON_HappyZero,INCONincon_FearReward,right_face,0.4181143215028327,on_time,1,ii,1,1479,147,38,5,F+H-,1
20.904109589041095,Adults,1286,j,inconINCON_HappyZero,INCONincon_FearReward,right_face,0.06040344661375818,on_time,1,ii,1,1286,149,39,5,F+H-,1
20.904109589041095,Adults,1079,f,INCONincon_FearReward,inconINCON_HappyZero,left_face,0.20265733415729015,on_time,1,ii,1,1079,151,40,5,F+H-,1
20.904109589041095,Adults,1604,j,inconINCON_HappyZero,INCONincon_FearReward,right_face,0.9886749894457384,on_time,0,ii,1,1604,155,41,5,F+H-,1
20.904109589041095,Adults,2333,j,inconINCON_HappyZero,INCONincon_FearReward,right_face,0.5080969891219393,on_time,1,ii,1,2333,159,42,5,F+H-,1
20.904109589041095,Adults,1583,f,INCONincon_FearReward,inconINCON_HappyZero,left_face,0.30656658097390177,on_time,1,ii,1,1583,168,43,5,F+H-,1
20.904109589041095,Adults,998,j,inconINCON_HappyZero,INCONincon_FearReward,right_face,0.42806861866787504,on_time,1,ii,1,998,169,44,5,F+H-,1
20.904109589041095,Adults,1103,j,inconINCON_HappyZero,INCONincon_FearReward,right_face,0.17371798253166482,on_time,1,ii,1,1103,176,45,5,F+H-,1
20.23835616438356,Adults,1985,j,conCON_FearZero,CONcon_HappyReward,right_face,0.2900057934019902,on_time,1,cc,1,1985,2,1,1,H+F-,2
20.23835616438356,Adults,1137,f,CONcon_HappyReward,conCON_FearZero,left_face,0.4327694148243495,on_time,1,cc,1,1137,3,2,1,H+F-,2
20.23835616438356,Adults,1411,f,CONcon_HappyReward,conCON_FearZero,left_face,0.00201113073061209,on_time,1,cc,1,1411,12,3,1,H+F-,2
20.23835616438356,Adults,2,j,CONcon_HappyReward,conCON_FearZero,left_face,0.6381152756416084,late_choose_now,0,cc,0,NA,18,4,1,H+F-,2
20.23835616438356,Adults,1259,f,CONcon_HappyReward,conCON_FearZero,left_face,0.6786604317522038,on_time,1,cc,1,1259,19,5,1,H+F-,2
20.23835616438356,Adults,1283,f,CONcon_HappyReward,conCON_FearZero,left_face,0.223342029555738,on_time,1,cc,1,1283,28,6,1,H+F-,2
20.23835616438356,Adults,843,f,CONcon_HappyReward,conCON_FearZero,left_face,0.01612368945165543,on_time,1,cc,1,843,31,7,1,H+F-,2
20.23835616438356,Adults,1236,f,conCON_FearZero,CONcon_HappyReward,right_face,0.23920040535655973,on_time,0,cc,0,1236,36,8,1,H+F-,2
20.23835616438356,Adults,1437,j,conCON_FearZero,CONcon_HappyReward,right_face,0.20192840264577727,on_time,1,cc,1,1437,43,9,1,H+F-,2
20.23835616438356,Adults,872,j,conCON_FearZero,CONcon_HappyReward,right_face,0.7918743471305083,on_time,0,cc,1,872,44,10,2,H+F-,2
20.23835616438356,Adults,1435,f,CONcon_HappyReward,conCON_FearZero,left_face,0.7923804243034069,on_time,0,cc,1,1435,48,11,2,H+F-,2
20.23835616438356,Adults,1114,f,conCON_FearZero,CONcon_HappyReward,right_face,0.6752766135180095,on_time,0,cc,0,1114,52,12,2,H+F-,2
20.23835616438356,Adults,887,f,conCON_FearZero,CONcon_HappyReward,right_face,0.8692523540739765,on_time,1,cc,0,887,54,13,2,H+F-,2
20.23835616438356,Adults,1273,j,CONcon_HappyReward,conCON_FearZero,left_face,0.2043336495975097,on_time,0,cc,0,1273,56,14,2,H+F-,2
20.23835616438356,Adults,1421,j,conCON_FearZero,CONcon_HappyReward,right_face,0.6803876532152702,on_time,1,cc,1,1421,59,15,2,H+F-,2
20.23835616438356,Adults,1756,j,conCON_FearZero,CONcon_HappyReward,right_face,0.5865495130351963,on_time,1,cc,1,1756,66,16,2,H+F-,2
20.23835616438356,Adults,1467,j,conCON_FearZero,CONcon_HappyReward,right_face,0.5500858599757994,on_time,1,cc,1,1467,67,17,2,H+F-,2
20.23835616438356,Adults,1036,j,conCON_FearZero,CONcon_HappyReward,right_face,0.1298188764594217,on_time,1,cc,1,1036,74,18,2,H+F-,2
20.23835616438356,Adults,1029,f,CONcon_HappyReward,conCON_FearZero,left_face,0.13758548712142438,on_time,1,cc,1,1029,79,19,3,H+F-,2
20.23835616438356,Adults,1330,f,CONcon_HappyReward,conCON_FearZero,left_face,0.8946261428988829,on_time,0,cc,1,1330,80,20,3,H+F-,2
20.23835616438356,Adults,1027,j,conCON_FearZero,CONcon_HappyReward,right_face,0.8391768117557352,on_time,0,cc,1,1027,82,21,3,H+F-,2
20.23835616438356,Adults,200,f,CONcon_HappyReward,conCON_FearZero,left_face,0.25901146413860254,on_time,1,cc,1,200,92,22,3,H+F-,2
20.23835616438356,Adults,1359,f,CONcon_HappyReward,conCON_FearZero,left_face,0.4686434443728613,on_time,1,cc,1,1359,100,23,3,H+F-,2
20.23835616438356,Adults,1301,j,conCON_FearZero,CONcon_HappyReward,right_face,0.35687786487145834,on_time,1,cc,1,1301,109,24,3,H+F-,2
20.23835616438356,Adults,1125,f,CONcon_HappyReward,conCON_FearZero,left_face,0.4809796795581862,on_time,1,cc,1,1125,110,25,3,H+F-,2
20.23835616438356,Adults,845,j,conCON_FearZero,CONcon_HappyReward,right_face,0.29983465966645895,on_time,1,cc,1,845,111,26,3,H+F-,2
20.23835616438356,Adults,1504,f,CONcon_HappyReward,conCON_FearZero,left_face,0.5057090387124379,on_time,1,cc,1,1504,114,27,3,H+F-,2
20.23835616438356,Adults,1009,j,conCON_FearZero,CONcon_HappyReward,right_face,0.9782340143987128,on_time,0,cc,1,1009,115,28,4,H+F-,2
20.23835616438356,Adults,1137,f,CONcon_HappyReward,conCON_FearZero,left_face,0.20389977803521964,on_time,1,cc,1,1137,116,29,4,H+F-,2
20.23835616438356,Adults,1005,j,conCON_FearZero,CONcon_HappyReward,right_face,0.31718097435202286,on_time,1,cc,1,1005,119,30,4,H+F-,2
20.23835616438356,Adults,921,j,conCON_FearZero,CONcon_HappyReward,right_face,0.9399325047185272,on_time,0,cc,1,921,122,31,4,H+F-,2
20.23835616438356,Adults,1315,f,conCON_FearZero,CONcon_HappyReward,right_face,0.10906719360723184,on_time,0,cc,0,1315,127,32,4,H+F-,2
20.23835616438356,Adults,1600,f,CONcon_HappyReward,conCON_FearZero,left_face,0.9138524294582848,on_time,0,cc,1,1600,133,33,4,H+F-,2
20.23835616438356,Adults,2234,j,CONcon_HappyReward,conCON_FearZero,left_face,0.406991712150748,on_time,0,cc,0,2234,141,34,4,H+F-,2
20.23835616438356,Adults,882,j,conCON_FearZero,CONcon_HappyReward,right_face,0.5417676866632517,on_time,1,cc,1,882,142,35,4,H+F-,2
20.23835616438356,Adults,1563,j,conCON_FearZero,CONcon_HappyReward,right_face,0.8430427428635412,on_time,0,cc,1,1563,144,36,4,H+F-,2
20.23835616438356,Adults,1347,j,conCON_FearZero,CONcon_HappyReward,right_face,0.01794550783294024,on_time,1,cc,1,1347,152,37,5,H+F-,2
20.23835616438356,Adults,1102,f,CONcon_HappyReward,conCON_FearZero,left_face,0.24238095113649183,on_time,1,cc,1,1102,154,38,5,H+F-,2
20.23835616438356,Adults,1621,j,conCON_FearZero,CONcon_HappyReward,right_face,0.20112794602447728,on_time,1,cc,1,1621,158,39,5,H+F-,2
20.23835616438356,Adults,1398,f,CONcon_HappyReward,conCON_FearZero,left_face,0.10400181673389808,on_time,1,cc,1,1398,163,40,5,H+F-,2
20.23835616438356,Adults,1428,f,CONcon_HappyReward,conCON_FearZero,left_face,0.8748001331190174,on_time,0,cc,1,1428,166,41,5,H+F-,2
20.23835616438356,Adults,1087,f,CONcon_HappyReward,conCON_FearZero,left_face,0.2551895162045079,on_time,1,cc,1,1087,168,42,5,H+F-,2
20.23835616438356,Adults,1426,f,CONcon_HappyReward,conCON_FearZero,left_face,0.6652907581668766,on_time,1,cc,1,1426,172,43,5,H+F-,2
20.23835616438356,Adults,1238,j,conCON_FearZero,CONcon_HappyReward,right_face,0.3941607441441026,on_time,1,cc,1,1238,178,44,5,H+F-,2
20.23835616438356,Adults,1162,j,conCON_FearZero,CONcon_HappyReward,right_face,0.18126068937986295,on_time,1,cc,1,1162,180,45,5,H+F-,2
20.23835616438356,Adults,805,f,CONincon_HappyReward,conINCON_HappyZero,left_face,0.8643338409854988,late_choose_now,0,ci,1,NA,1,1,1,H+H-,2
20.23835616438356,Adults,2796,f,conINCON_HappyZero,CONincon_HappyReward,right_face,0.3705831916115021,on_time,0,ci,0,2796,10,2,1,H+H-,2
20.23835616438356,Adults,1412,f,CONincon_HappyReward,conINCON_HappyZero,left_face,0.7813516042047486,on_time,0,ci,1,1412,11,3,1,H+H-,2
20.23835616438356,Adults,2405,f,CONincon_HappyReward,conINCON_HappyZero,left_face,0.2504471788553284,on_time,1,ci,1,2405,14,4,1,H+H-,2
20.23835616438356,Adults,1487,j,conINCON_HappyZero,CONincon_HappyReward,right_face,0.4959233157290543,on_time,1,ci,1,1487,15,5,1,H+H-,2
20.23835616438356,Adults,2268,f,CONincon_HappyReward,conINCON_HappyZero,left_face,0.0046244793659389,on_time,1,ci,1,2268,22,6,1,H+H-,2
20.23835616438356,Adults,1869,j,CONincon_HappyReward,conINCON_HappyZero,left_face,0.01407817342048201,on_time,0,ci,0,1869,27,7,1,H+H-,2
20.23835616438356,Adults,217,f,conINCON_HappyZero,CONincon_HappyReward,right_face,0.02204906830791797,late_choose_now,0,ci,0,NA,30,8,1,H+H-,2
20.23835616438356,Adults,865,f,CONincon_HappyReward,conINCON_HappyZero,left_face,0.920369853310976,on_time,0,ci,1,865,32,9,1,H+H-,2
20.23835616438356,Adults,1664,j,conINCON_HappyZero,CONincon_HappyReward,right_face,0.8030868453017583,on_time,0,ci,1,1664,37,10,2,H+H-,2
20.23835616438356,Adults,1288,f,conINCON_HappyZero,CONincon_HappyReward,right_face,0.4870967752584354,on_time,0,ci,0,1288,40,11,2,H+H-,2
20.23835616438356,Adults,1145,j,CONincon_HappyReward,conINCON_HappyZero,left_face,0.5302198038914683,on_time,0,ci,0,1145,41,12,2,H+H-,2
20.23835616438356,Adults,2159,j,CONincon_HappyReward,conINCON_HappyZero,left_face,0.4618232917048544,on_time,0,ci,0,2159,45,13,2,H+H-,2
20.23835616438356,Adults,1515,j,conINCON_HappyZero,CONincon_HappyReward,right_face,0.8786616887898715,on_time,0,ci,1,1515,47,14,2,H+H-,2
20.23835616438356,Adults,1777,j,conINCON_HappyZero,CONincon_HappyReward,right_face,0.49338311117857625,on_time,1,ci,1,1777,51,15,2,H+H-,2
20.23835616438356,Adults,1872,f,conINCON_HappyZero,CONincon_HappyReward,right_face,0.06530068204956363,on_time,0,ci,0,1872,62,16,2,H+H-,2
20.23835616438356,Adults,1011,j,CONincon_HappyReward,conINCON_HappyZero,left_face,0.0765180946074957,on_time,0,ci,0,1011,63,17,2,H+H-,2
20.23835616438356,Adults,958,f,conINCON_HappyZero,CONincon_HappyReward,right_face,0.7749827826710254,on_time,1,ci,0,958,64,18,2,H+H-,2
20.23835616438356,Adults,1033,f,CONincon_HappyReward,conINCON_HappyZero,left_face,0.8276182095013693,on_time,0,ci,1,1033,71,19,3,H+H-,2
20.23835616438356,Adults,1617,j,CONincon_HappyReward,conINCON_HappyZero,left_face,0.6486041957992177,on_time,0,ci,0,1617,73,20,3,H+H-,2
20.23835616438356,Adults,1069,f,conINCON_HappyZero,CONincon_HappyReward,right_face,0.5955926923114176,late_choose_now,0,ci,0,NA,76,21,3,H+H-,2
20.23835616438356,Adults,1093,f,conINCON_HappyZero,CONincon_HappyReward,right_face,0.7609309016474888,on_time,1,ci,0,1093,78,22,3,H+H-,2
20.23835616438356,Adults,1564,j,conINCON_HappyZero,CONincon_HappyReward,right_face,0.6513181654332341,on_time,1,ci,1,1564,85,23,3,H+H-,2
20.23835616438356,Adults,144,f,conINCON_HappyZero,CONincon_HappyReward,right_face,0.19355912622317883,late_choose_now,0,ci,0,NA,87,24,3,H+H-,2
20.23835616438356,Adults,1164,j,CONincon_HappyReward,conINCON_HappyZero,left_face,0.40747084673676515,on_time,0,ci,0,1164,91,25,3,H+H-,2
20.23835616438356,Adults,745,j,CONincon_HappyReward,conINCON_HappyZero,left_face,0.8904995519257748,on_time,1,ci,0,745,94,26,3,H+H-,2
20.23835616438356,Adults,917,j,conINCON_HappyZero,CONincon_HappyReward,right_face,0.5080361302366772,on_time,1,ci,1,917,96,27,3,H+H-,2
20.23835616438356,Adults,1344,j,CONincon_HappyReward,conINCON_HappyZero,left_face,0.15841856284384614,on_time,0,ci,0,1344,97,28,4,H+H-,2
20.23835616438356,Adults,1597,j,CONincon_HappyReward,conINCON_HappyZero,left_face,0.7198819610536371,on_time,0,ci,0,1597,102,29,4,H+H-,2
20.23835616438356,Adults,1923,j,conINCON_HappyZero,CONincon_HappyReward,right_face,0.6742543442028657,on_time,1,ci,1,1923,117,30,4,H+H-,2
20.23835616438356,Adults,1200,j,CONincon_HappyReward,conINCON_HappyZero,left_face,0.27242808104347804,on_time,0,ci,0,1200,124,31,4,H+H-,2
20.23835616438356,Adults,1186,f,conINCON_HappyZero,CONincon_HappyReward,right_face,0.4496053087497558,on_time,0,ci,0,1186,126,32,4,H+H-,2
20.23835616438356,Adults,1176,f,conINCON_HappyZero,CONincon_HappyReward,right_face,0.2004622028671157,on_time,0,ci,0,1176,134,33,4,H+H-,2
20.23835616438356,Adults,2117,f,conINCON_HappyZero,CONincon_HappyReward,right_face,0.23742251990919727,on_time,0,ci,0,2117,138,34,4,H+H-,2
20.23835616438356,Adults,2640,j,CONincon_HappyReward,conINCON_HappyZero,left_face,0.290684811771589,on_time,0,ci,0,2640,147,35,4,H+H-,2
20.23835616438356,Adults,1430,j,CONincon_HappyReward,conINCON_HappyZero,left_face,0.7596982004449226,on_time,1,ci,0,1430,149,36,4,H+H-,2
20.23835616438356,Adults,1293,j,CONincon_HappyReward,conINCON_HappyZero,left_face,0.9519381991474118,on_time,1,ci,0,1293,153,37,5,H+H-,2
20.23835616438356,Adults,1257,f,conINCON_HappyZero,CONincon_HappyReward,right_face,0.4162543598528625,on_time,0,ci,0,1257,155,38,5,H+H-,2
20.23835616438356,Adults,1042,j,CONincon_HappyReward,conINCON_HappyZero,left_face,0.1371027411893344,on_time,0,ci,0,1042,157,39,5,H+H-,2
20.23835616438356,Adults,1936,f,CONincon_HappyReward,conINCON_HappyZero,left_face,0.6596585208032872,on_time,1,ci,1,1936,162,40,5,H+H-,2
20.23835616438356,Adults,1350,f,CONincon_HappyReward,conINCON_HappyZero,left_face,0.3143267492838746,on_time,1,ci,1,1350,164,41,5,H+H-,2
20.23835616438356,Adults,1364,f,CONincon_HappyReward,conINCON_HappyZero,left_face,0.9165211470270768,on_time,0,ci,1,1364,165,42,5,H+H-,2
20.23835616438356,Adults,1218,j,conINCON_HappyZero,CONincon_HappyReward,right_face,0.7092447534662731,on_time,1,ci,1,1218,174,43,5,H+H-,2
20.23835616438356,Adults,1259,j,conINCON_HappyZero,CONincon_HappyReward,right_face,0.37437531537008506,on_time,1,ci,1,1259,175,44,5,H+H-,2
20.23835616438356,Adults,1588,f,CONincon_HappyReward,conINCON_HappyZero,left_face,0.3446254448701871,on_time,1,ci,1,1588,177,45,5,H+H-,2
20.23835616438356,Adults,2929,j,inconCON_FearZero,INCONcon_FearReward,right_face,0.1652678319856331,on_time,1,ic,1,2929,4,1,1,F+F-,2
20.23835616438356,Adults,1826,j,inconCON_FearZero,INCONcon_FearReward,right_face,0.0271415641769892,on_time,1,ic,1,1826,7,2,1,F+F-,2
20.23835616438356,Adults,1333,f,INCONcon_FearReward,inconCON_FearZero,left_face,0.7243198085675813,on_time,1,ic,1,1333,8,3,1,F+F-,2
20.23835616438356,Adults,1211,f,INCONcon_FearReward,inconCON_FearZero,left_face,0.7793908678464523,on_time,0,ic,1,1211,9,4,1,F+F-,2
20.23835616438356,Adults,2393,j,inconCON_FearZero,INCONcon_FearReward,right_face,0.6955186784689895,on_time,1,ic,1,2393,16,5,1,F+F-,2
20.23835616438356,Adults,849,j,inconCON_FearZero,INCONcon_FearReward,right_face,0.1015296974308657,on_time,1,ic,1,849,17,6,1,F+F-,2
20.23835616438356,Adults,1519,f,INCONcon_FearReward,inconCON_FearZero,left_face,0.26999102954793375,on_time,1,ic,1,1519,25,7,1,F+F-,2
20.23835616438356,Adults,1015,f,INCONcon_FearReward,inconCON_FearZero,left_face,0.526729782292124,on_time,1,ic,1,1015,26,8,1,F+F-,2
20.23835616438356,Adults,1701,j,inconCON_FearZero,INCONcon_FearReward,right_face,0.7146720347281226,on_time,1,ic,1,1701,29,9,1,F+F-,2
20.23835616438356,Adults,874,f,INCONcon_FearReward,inconCON_FearZero,left_face,0.27047594380641704,on_time,1,ic,1,874,33,10,2,F+F-,2
20.23835616438356,Adults,1964,j,inconCON_FearZero,INCONcon_FearReward,right_face,0.5105329126746958,on_time,1,ic,1,1964,42,11,2,F+F-,2
20.23835616438356,Adults,855,j,inconCON_FearZero,INCONcon_FearReward,right_face,0.9300742534020192,on_time,0,ic,1,855,46,12,2,F+F-,2
20.23835616438356,Adults,1237,j,inconCON_FearZero,INCONcon_FearReward,right_face,0.19534395661833215,on_time,1,ic,1,1237,53,13,2,F+F-,2
20.23835616438356,Adults,963,f,inconCON_FearZero,INCONcon_FearReward,right_face,0.03892730430022317,on_time,0,ic,0,963,55,14,2,F+F-,2
20.23835616438356,Adults,1366,j,inconCON_FearZero,INCONcon_FearReward,right_face,0.7307449383481934,on_time,1,ic,1,1366,58,15,2,F+F-,2
20.23835616438356,Adults,1631,j,inconCON_FearZero,INCONcon_FearReward,right_face,0.3118142394769201,on_time,1,ic,1,1631,61,16,2,F+F-,2
20.23835616438356,Adults,1661,f,INCONcon_FearReward,inconCON_FearZero,left_face,0.19309641960125812,on_time,1,ic,1,1661,68,17,2,F+F-,2
20.23835616438356,Adults,1720,j,inconCON_FearZero,INCONcon_FearReward,right_face,0.6085314885601198,on_time,1,ic,1,1720,75,18,2,F+F-,2
20.23835616438356,Adults,1550,j,INCONcon_FearReward,inconCON_FearZero,left_face,0.33690289520852335,on_time,0,ic,0,1550,77,19,3,F+F-,2
20.23835616438356,Adults,1529,j,inconCON_FearZero,INCONcon_FearReward,right_face,0.3860554270978656,on_time,1,ic,1,1529,81,20,3,F+F-,2
20.23835616438356,Adults,1292,j,inconCON_FearZero,INCONcon_FearReward,right_face,0.7222908795385603,on_time,1,ic,1,1292,83,21,3,F+F-,2
20.23835616438356,Adults,1545,f,INCONcon_FearReward,inconCON_FearZero,left_face,0.8350904955253882,on_time,0,ic,1,1545,89,22,3,F+F-,2
20.23835616438356,Adults,870,j,inconCON_FearZero,INCONcon_FearReward,right_face,0.5390505156535912,on_time,1,ic,1,870,90,23,3,F+F-,2
20.23835616438356,Adults,1050,f,INCONcon_FearReward,inconCON_FearZero,left_face,0.5771426538677236,on_time,1,ic,1,1050,95,24,3,F+F-,2
20.23835616438356,Adults,636,f,inconCON_FearZero,INCONcon_FearReward,right_face,0.34426414344009415,on_time,0,ic,0,636,98,25,3,F+F-,2
20.23835616438356,Adults,2128,f,INCONcon_FearReward,inconCON_FearZero,left_face,0.6802448379015813,on_time,1,ic,1,2128,103,26,3,F+F-,2
20.23835616438356,Adults,1009,j,inconCON_FearZero,INCONcon_FearReward,right_face,0.3562124135753364,on_time,1,ic,1,1009,104,27,3,F+F-,2
20.23835616438356,Adults,1764,j,inconCON_FearZero,INCONcon_FearReward,right_face,0.6172183351056018,on_time,1,ic,1,1764,112,28,4,F+F-,2
20.23835616438356,Adults,1187,j,inconCON_FearZero,INCONcon_FearReward,right_face,0.14956292457763243,on_time,1,ic,1,1187,118,29,4,F+F-,2
20.23835616438356,Adults,1358,f,INCONcon_FearReward,inconCON_FearZero,left_face,0.9877350980660426,on_time,0,ic,1,1358,120,30,4,F+F-,2
20.23835616438356,Adults,1330,f,INCONcon_FearReward,inconCON_FearZero,left_face,0.8298130615908255,on_time,0,ic,1,1330,123,31,4,F+F-,2
20.23835616438356,Adults,1623,f,INCONcon_FearReward,inconCON_FearZero,left_face,0.5243679396513337,on_time,1,ic,1,1623,125,32,4,F+F-,2
20.23835616438356,Adults,1272,f,inconCON_FearZero,INCONcon_FearReward,right_face,0.2949293335611165,on_time,0,ic,0,1272,135,33,4,F+F-,2
20.23835616438356,Adults,856,j,inconCON_FearZero,INCONcon_FearReward,right_face,0.31682433643864716,on_time,1,ic,1,856,136,34,4,F+F-,2
20.23835616438356,Adults,1278,f,INCONcon_FearReward,inconCON_FearZero,left_face,0.12086463180442396,on_time,1,ic,1,1278,137,35,4,F+F-,2
20.23835616438356,Adults,2086,f,INCONcon_FearReward,inconCON_FearZero,left_face,0.13522633642462867,on_time,1,ic,1,2086,140,36,4,F+F-,2
20.23835616438356,Adults,1739,j,inconCON_FearZero,INCONcon_FearReward,right_face,0.2724281136115283,on_time,1,ic,1,1739,143,37,5,F+F-,2
20.23835616438356,Adults,1431,f,INCONcon_FearReward,inconCON_FearZero,left_face,0.4861701045810816,on_time,1,ic,1,1431,146,38,5,F+F-,2
20.23835616438356,Adults,1133,j,inconCON_FearZero,INCONcon_FearReward,right_face,0.9328508194605658,on_time,0,ic,1,1133,148,39,5,F+F-,2
20.23835616438356,Adults,1291,f,INCONcon_FearReward,inconCON_FearZero,left_face,0.6630193860612505,on_time,1,ic,1,1291,159,40,5,F+F-,2
20.23835616438356,Adults,1363,j,inconCON_FearZero,INCONcon_FearReward,right_face,0.8628523676399331,on_time,0,ic,1,1363,160,41,5,F+F-,2
20.23835616438356,Adults,1264,j,inconCON_FearZero,INCONcon_FearReward,right_face,0.4977717928993623,on_time,1,ic,1,1264,169,42,5,F+F-,2
20.23835616438356,Adults,1388,f,INCONcon_FearReward,inconCON_FearZero,left_face,0.6431489835556037,on_time,1,ic,1,1388,171,43,5,F+F-,2
20.23835616438356,Adults,1200,j,inconCON_FearZero,INCONcon_FearReward,right_face,0.1630636636611675,on_time,1,ic,1,1200,173,44,5,F+F-,2
20.23835616438356,Adults,1116,f,INCONcon_FearReward,inconCON_FearZero,left_face,0.5818974562749681,on_time,1,ic,1,1116,179,45,5,F+F-,2
20.23835616438356,Adults,1153,f,inconINCON_HappyZero,INCONincon_FearReward,right_face,0.7226457579389087,on_time,0,ii,0,1153,5,1,1,F+H-,2
20.23835616438356,Adults,2359,f,inconINCON_HappyZero,INCONincon_FearReward,right_face,0.30978177394015316,on_time,0,ii,0,2359,6,2,1,F+H-,2
20.23835616438356,Adults,1860,j,inconINCON_HappyZero,INCONincon_FearReward,right_face,0.46034487958997294,on_time,1,ii,1,1860,13,3,1,F+H-,2
20.23835616438356,Adults,1789,f,inconINCON_HappyZero,INCONincon_FearReward,right_face,0.13620164069503748,on_time,0,ii,0,1789,20,4,1,F+H-,2
20.23835616438356,Adults,847,j,INCONincon_FearReward,inconINCON_HappyZero,left_face,0.8208134608616999,on_time,1,ii,0,847,21,5,1,F+H-,2
20.23835616438356,Adults,1302,j,INCONincon_FearReward,inconINCON_HappyZero,left_face,0.18104791517279128,on_time,0,ii,0,1302,23,6,1,F+H-,2
20.23835616438356,Adults,2761,f,INCONincon_FearReward,inconINCON_HappyZero,left_face,0.5089228959966827,on_time,1,ii,1,2761,24,7,1,F+H-,2
20.23835616438356,Adults,742,j,INCONincon_FearReward,inconINCON_HappyZero,left_face,0.120051823606123,on_time,0,ii,0,742,34,8,1,F+H-,2
20.23835616438356,Adults,1392,f,INCONincon_FearReward,inconINCON_HappyZero,left_face,0.2992935288220042,on_time,1,ii,1,1392,35,9,1,F+H-,2
20.23835616438356,Adults,2228,j,INCONincon_FearReward,inconINCON_HappyZero,left_face,0.4641714722250525,on_time,0,ii,0,2228,38,10,2,F+H-,2
20.23835616438356,Adults,938,j,inconINCON_HappyZero,INCONincon_FearReward,right_face,0.9286733078647372,on_time,0,ii,1,938,39,11,2,F+H-,2
20.23835616438356,Adults,692,j,inconINCON_HappyZero,INCONincon_FearReward,right_face,0.8857737523295395,on_time,0,ii,1,692,49,12,2,F+H-,2
20.23835616438356,Adults,2157,f,INCONincon_FearReward,inconINCON_HappyZero,left_face,0.12488785008430804,on_time,1,ii,1,2157,50,13,2,F+H-,2
20.23835616438356,Adults,2641,j,INCONincon_FearReward,inconINCON_HappyZero,left_face,0.3541754964157211,on_time,0,ii,0,2641,57,14,2,F+H-,2
20.23835616438356,Adults,1245,j,INCONincon_FearReward,inconINCON_HappyZero,left_face,0.552787613466625,on_time,0,ii,0,1245,60,15,2,F+H-,2
20.23835616438356,Adults,2903,f,inconINCON_HappyZero,INCONincon_FearReward,right_face,0.7487967509127531,on_time,0,ii,0,2903,65,16,2,F+H-,2
20.23835616438356,Adults,2258,f,inconINCON_HappyZero,INCONincon_FearReward,right_face,0.4635070315936385,on_time,0,ii,0,2258,69,17,2,F+H-,2
20.23835616438356,Adults,905,j,INCONincon_FearReward,inconINCON_HappyZero,left_face,0.12021521898156018,on_time,0,ii,0,905,70,18,2,F+H-,2
20.23835616438356,Adults,1547,j,INCONincon_FearReward,inconINCON_HappyZero,left_face,0.17707251026215487,on_time,0,ii,0,1547,72,19,3,F+H-,2
20.23835616438356,Adults,1625,f,INCONincon_FearReward,inconINCON_HappyZero,left_face,0.8583564411406774,on_time,0,ii,1,1625,84,20,3,F+H-,2
20.23835616438356,Adults,1122,f,inconINCON_HappyZero,INCONincon_FearReward,right_face,0.19109002403739916,on_time,0,ii,0,1122,86,21,3,F+H-,2
20.23835616438356,Adults,823,j,INCONincon_FearReward,inconINCON_HappyZero,left_face,0.1717657162636348,on_time,0,ii,0,823,88,22,3,F+H-,2
20.23835616438356,Adults,748,f,inconINCON_HappyZero,INCONincon_FearReward,right_face,0.0467325606881448,on_time,0,ii,0,748,93,23,3,F+H-,2
20.23835616438356,Adults,1202,f,inconINCON_HappyZero,INCONincon_FearReward,right_face,0.04029696946862149,on_time,0,ii,0,1202,99,24,3,F+H-,2
20.23835616438356,Adults,1483,f,inconINCON_HappyZero,INCONincon_FearReward,right_face,0.36098350666127166,on_time,0,ii,0,1483,101,25,3,F+H-,2
20.23835616438356,Adults,1461,f,INCONincon_FearReward,inconINCON_HappyZero,left_face,0.7627122655201004,on_time,0,ii,1,1461,105,26,3,F+H-,2
20.23835616438356,Adults,1323,j,INCONincon_FearReward,inconINCON_HappyZero,left_face,0.5083266619192186,on_time,0,ii,0,1323,106,27,3,F+H-,2
20.23835616438356,Adults,982,f,INCONincon_FearReward,inconINCON_HappyZero,left_face,0.01897099881129982,on_time,1,ii,1,982,107,28,4,F+H-,2
20.23835616438356,Adults,624,j,inconINCON_HappyZero,INCONincon_FearReward,right_face,0.8618541184564594,on_time,0,ii,1,624,108,29,4,F+H-,2
20.23835616438356,Adults,48,f,inconINCON_HappyZero,INCONincon_FearReward,right_face,0.8390687686403111,late_choose_now,1,ii,0,NA,113,30,4,F+H-,2
20.23835616438356,Adults,1278,j,INCONincon_FearReward,inconINCON_HappyZero,left_face,0.34509849069395315,on_time,0,ii,0,1278,121,31,4,F+H-,2
20.23835616438356,Adults,985,f,INCONincon_FearReward,inconINCON_HappyZero,left_face,0.4271416690528069,on_time,1,ii,1,985,128,32,4,F+H-,2
20.23835616438356,Adults,538,f,INCONincon_FearReward,inconINCON_HappyZero,left_face,0.28658846017626805,on_time,1,ii,1,538,129,33,4,F+H-,2
20.23835616438356,Adults,889,j,inconINCON_HappyZero,INCONincon_FearReward,right_face,0.33488863042956396,on_time,1,ii,1,889,130,34,4,F+H-,2
20.23835616438356,Adults,632,j,inconINCON_HappyZero,INCONincon_FearReward,right_face,0.16042699942623928,on_time,1,ii,1,632,131,35,4,F+H-,2
20.23835616438356,Adults,1078,j,inconINCON_HappyZero,INCONincon_FearReward,right_face,0.0471464920465805,on_time,1,ii,1,1078,132,36,4,F+H-,2
20.23835616438356,Adults,1199,j,inconINCON_HappyZero,INCONincon_FearReward,right_face,0.6410209565340703,on_time,1,ii,1,1199,139,37,5,F+H-,2
20.23835616438356,Adults,1022,f,INCONincon_FearReward,inconINCON_HappyZero,left_face,0.7739252245296542,on_time,0,ii,1,1022,145,38,5,F+H-,2
20.23835616438356,Adults,1014,j,inconINCON_HappyZero,INCONincon_FearReward,right_face,0.26368828351618645,on_time,1,ii,1,1014,150,39,5,F+H-,2
20.23835616438356,Adults,717,f,INCONincon_FearReward,inconINCON_HappyZero,left_face,0.5770452157126591,on_time,1,ii,1,717,151,40,5,F+H-,2
20.23835616438356,Adults,1147,f,INCONincon_FearReward,inconINCON_HappyZero,left_face,0.43497255251258293,on_time,1,ii,1,1147,156,41,5,F+H-,2
20.23835616438356,Adults,1227,f,inconINCON_HappyZero,INCONincon_FearReward,right_face,0.7912113367723215,on_time,1,ii,0,1227,161,42,5,F+H-,2
20.23835616438356,Adults,1087,f,INCONincon_FearReward,inconINCON_HappyZero,left_face,0.3108829831578239,on_time,1,ii,1,1087,167,43,5,F+H-,2
20.23835616438356,Adults,1239,j,inconINCON_HappyZero,INCONincon_FearReward,right_face,0.43214801726707375,on_time,1,ii,1,1239,170,44,5,F+H-,2
20.23835616438356,Adults,1166,j,inconINCON_HappyZero,INCONincon_FearReward,right_face,0.7671662783894284,on_time,0,ii,1,1166,176,45,5,F+H-,2
20.427397260273978,Adults,2600,j,conCON_FearZero,CONcon_HappyReward,right_face,0.37008351679568086,on_time,1,cc,1,2600,1,1,1,H+F-,3
20.427397260273978,Adults,1261,j,conCON_FearZero,CONcon_HappyReward,right_face,0.3294974368351793,on_time,1,cc,1,1261,7,2,1,H+F-,3
20.427397260273978,Adults,1899,j,conCON_FearZero,CONcon_HappyReward,right_face,0.5872913984881349,on_time,1,cc,1,1899,12,3,1,H+F-,3
20.427397260273978,Adults,1324,j,conCON_FearZero,CONcon_HappyReward,right_face,0.89865185950321,on_time,0,cc,1,1324,13,4,1,H+F-,3
20.427397260273978,Adults,1429,f,CONcon_HappyReward,conCON_FearZero,left_face,0.4980036028057775,on_time,1,cc,1,1429,20,5,1,H+F-,3
20.427397260273978,Adults,1183,j,conCON_FearZero,CONcon_HappyReward,right_face,0.9503107186345372,on_time,0,cc,1,1183,23,6,1,H+F-,3
20.427397260273978,Adults,1030,j,conCON_FearZero,CONcon_HappyReward,right_face,0.8454966980909469,on_time,0,cc,1,1030,25,7,1,H+F-,3
20.427397260273978,Adults,1018,f,CONcon_HappyReward,conCON_FearZero,left_face,0.11216292211895372,on_time,1,cc,1,1018,32,8,1,H+F-,3
20.427397260273978,Adults,1113,j,conCON_FearZero,CONcon_HappyReward,right_face,0.5012334610829179,on_time,1,cc,1,1113,41,9,1,H+F-,3
20.427397260273978,Adults,1540,f,CONcon_HappyReward,conCON_FearZero,left_face,0.5784097427556114,on_time,1,cc,1,1540,42,10,2,H+F-,3
20.427397260273978,Adults,1137,f,CONcon_HappyReward,conCON_FearZero,left_face,0.6954844853485633,on_time,1,cc,1,1137,45,11,2,H+F-,3
20.427397260273978,Adults,955,f,CONcon_HappyReward,conCON_FearZero,left_face,0.9423511362766248,on_time,0,cc,1,955,46,12,2,H+F-,3
20.427397260273978,Adults,1055,f,CONcon_HappyReward,conCON_FearZero,left_face,0.753878297183542,on_time,0,cc,1,1055,47,13,2,H+F-,3
20.427397260273978,Adults,1712,j,conCON_FearZero,CONcon_HappyReward,right_face,0.49105683549391976,on_time,1,cc,1,1712,48,14,2,H+F-,3
20.427397260273978,Adults,1140,j,conCON_FearZero,CONcon_HappyReward,right_face,0.6166111571469184,on_time,1,cc,1,1140,59,15,2,H+F-,3
20.427397260273978,Adults,1161,j,conCON_FearZero,CONcon_HappyReward,right_face,0.02749291695618749,on_time,1,cc,1,1161,63,16,2,H+F-,3
20.427397260273978,Adults,1047,j,conCON_FearZero,CONcon_HappyReward,right_face,0.17714480276209765,on_time,1,cc,1,1047,66,17,2,H+F-,3
20.427397260273978,Adults,1334,f,CONcon_HappyReward,conCON_FearZero,left_face,0.3251715385997429,on_time,1,cc,1,1334,70,18,2,H+F-,3
20.427397260273978,Adults,897,f,CONcon_HappyReward,conCON_FearZero,left_face,0.96776186425452,on_time,0,cc,1,897,72,19,3,H+F-,3
20.427397260273978,Adults,1256,f,CONcon_HappyReward,conCON_FearZero,left_face,0.828550796748714,on_time,0,cc,1,1256,83,20,3,H+F-,3
20.427397260273978,Adults,1035,f,CONcon_HappyReward,conCON_FearZero,left_face,0.4953062589890338,on_time,1,cc,1,1035,89,21,3,H+F-,3
20.427397260273978,Adults,870,f,CONcon_HappyReward,conCON_FearZero,left_face,0.1557074021661089,on_time,1,cc,1,870,92,22,3,H+F-,3
20.427397260273978,Adults,661,f,CONcon_HappyReward,conCON_FearZero,left_face,0.08570048796852503,on_time,1,cc,1,661,93,23,3,H+F-,3
20.427397260273978,Adults,908,f,CONcon_HappyReward,conCON_FearZero,left_face,0.5662970109056675,on_time,1,cc,1,908,94,24,3,H+F-,3
20.427397260273978,Adults,925,f,CONcon_HappyReward,conCON_FearZero,left_face,0.13214376936748828,on_time,1,cc,1,925,96,25,3,H+F-,3
20.427397260273978,Adults,1104,j,conCON_FearZero,CONcon_HappyReward,right_face,0.26440818080678774,on_time,1,cc,1,1104,97,26,3,H+F-,3
20.427397260273978,Adults,1161,f,CONcon_HappyReward,conCON_FearZero,left_face,0.5144993892940648,on_time,1,cc,1,1161,108,27,3,H+F-,3
20.427397260273978,Adults,932,j,conCON_FearZero,CONcon_HappyReward,right_face,0.6300018330528683,on_time,1,cc,1,932,115,28,4,H+F-,3
20.427397260273978,Adults,985,f,CONcon_HappyReward,conCON_FearZero,left_face,0.8430015596256177,on_time,0,cc,1,985,117,29,4,H+F-,3
20.427397260273978,Adults,854,f,CONcon_HappyReward,conCON_FearZero,left_face,0.24437086976211184,on_time,1,cc,1,854,119,30,4,H+F-,3
20.427397260273978,Adults,774,f,CONcon_HappyReward,conCON_FearZero,left_face,0.1287370870892135,on_time,1,cc,1,774,122,31,4,H+F-,3
20.427397260273978,Adults,696,f,CONcon_HappyReward,conCON_FearZero,left_face,0.5808927267078323,on_time,1,cc,1,696,124,32,4,H+F-,3
20.427397260273978,Adults,878,j,conCON_FearZero,CONcon_HappyReward,right_face,0.6134803156043798,on_time,1,cc,1,878,125,33,4,H+F-,3
20.427397260273978,Adults,940,j,conCON_FearZero,CONcon_HappyReward,right_face,0.18342957627063905,on_time,1,cc,1,940,138,34,4,H+F-,3
20.427397260273978,Adults,879,f,CONcon_HappyReward,conCON_FearZero,left_face,0.708694582485792,on_time,1,cc,1,879,140,35,4,H+F-,3
20.427397260273978,Adults,986,j,conCON_FearZero,CONcon_HappyReward,right_face,0.6608460603897259,on_time,1,cc,1,986,141,36,4,H+F-,3
20.427397260273978,Adults,883,f,CONcon_HappyReward,conCON_FearZero,left_face,0.4106363143103324,on_time,1,cc,1,883,143,37,5,H+F-,3
20.427397260273978,Adults,832,j,conCON_FearZero,CONcon_HappyReward,right_face,0.30650805301416906,on_time,1,cc,1,832,147,38,5,H+F-,3
20.427397260273978,Adults,872,f,CONcon_HappyReward,conCON_FearZero,left_face,0.9479277677714012,on_time,0,cc,1,872,153,39,5,H+F-,3
20.427397260273978,Adults,861,f,CONcon_HappyReward,conCON_FearZero,left_face,0.3512236650338345,on_time,1,cc,1,861,154,40,5,H+F-,3
20.427397260273978,Adults,994,j,conCON_FearZero,CONcon_HappyReward,right_face,0.08720621507011184,on_time,1,cc,1,994,162,41,5,H+F-,3
20.427397260273978,Adults,866,j,conCON_FearZero,CONcon_HappyReward,right_face,0.4721588225804545,on_time,1,cc,1,866,163,42,5,H+F-,3
20.427397260273978,Adults,1112,f,CONcon_HappyReward,conCON_FearZero,left_face,0.3240457179072349,on_time,1,cc,1,1112,165,43,5,H+F-,3
20.427397260273978,Adults,1077,f,CONcon_HappyReward,conCON_FearZero,left_face,0.3780052355204173,on_time,1,cc,1,1077,167,44,5,H+F-,3
20.427397260273978,Adults,1425,j,conCON_FearZero,CONcon_HappyReward,right_face,0.6557670541168936,on_time,1,cc,1,1425,169,45,5,H+F-,3
20.427397260273978,Adults,1881,f,conINCON_HappyZero,CONincon_HappyReward,right_face,0.8309524885862989,on_time,1,ci,0,1881,5,1,1,H+H-,3
20.427397260273978,Adults,2081,j,CONincon_HappyReward,conINCON_HappyZero,left_face,0.3331552363234911,on_time,0,ci,0,2081,6,2,1,H+H-,3
20.427397260273978,Adults,1717,j,conINCON_HappyZero,CONincon_HappyReward,right_face,0.604780420871126,on_time,1,ci,1,1717,17,3,1,H+H-,3
20.427397260273978,Adults,1266,j,conINCON_HappyZero,CONincon_HappyReward,right_face,0.4634275754351822,on_time,1,ci,1,1266,24,4,1,H+H-,3
20.427397260273978,Adults,1284,f,CONincon_HappyReward,conINCON_HappyZero,left_face,0.172208012439657,on_time,1,ci,1,1284,26,5,1,H+H-,3
20.427397260273978,Adults,1159,j,conINCON_HappyZero,CONincon_HappyReward,right_face,0.5490778055819692,on_time,1,ci,1,1159,27,6,1,H+H-,3
20.427397260273978,Adults,1005,j,conINCON_HappyZero,CONincon_HappyReward,right_face,0.8986682723882633,on_time,0,ci,1,1005,35,7,1,H+H-,3
20.427397260273978,Adults,1246,j,conINCON_HappyZero,CONincon_HappyReward,right_face,0.10051681398379286,on_time,1,ci,1,1246,37,8,1,H+H-,3
20.427397260273978,Adults,1128,f,CONincon_HappyReward,conINCON_HappyZero,left_face,0.03897429599441238,on_time,1,ci,1,1128,39,9,1,H+H-,3
20.427397260273978,Adults,967,f,CONincon_HappyReward,conINCON_HappyZero,left_face,0.01908845530285385,on_time,1,ci,1,967,44,10,2,H+H-,3
20.427397260273978,Adults,1085,f,CONincon_HappyReward,conINCON_HappyZero,left_face,0.915239577499336,on_time,0,ci,1,1085,52,11,2,H+H-,3
20.427397260273978,Adults,925,j,conINCON_HappyZero,CONincon_HappyReward,right_face,0.00770732703320531,on_time,1,ci,1,925,53,12,2,H+H-,3
20.427397260273978,Adults,1598,j,conINCON_HappyZero,CONincon_HappyReward,right_face,0.6176860184230615,on_time,1,ci,1,1598,55,13,2,H+H-,3
20.427397260273978,Adults,969,j,conINCON_HappyZero,CONincon_HappyReward,right_face,0.872237136840748,on_time,0,ci,1,969,57,14,2,H+H-,3
20.427397260273978,Adults,935,j,conINCON_HappyZero,CONincon_HappyReward,right_face,0.04573106445370323,on_time,1,ci,1,935,58,15,2,H+H-,3
20.427397260273978,Adults,1573,j,conINCON_HappyZero,CONincon_HappyReward,right_face,0.6806477508481192,on_time,1,ci,1,1573,69,16,2,H+H-,3
20.427397260273978,Adults,1523,j,conINCON_HappyZero,CONincon_HappyReward,right_face,0.9362175865987076,on_time,0,ci,1,1523,73,17,2,H+H-,3
20.427397260273978,Adults,1564,f,CONincon_HappyReward,conINCON_HappyZero,left_face,0.5548430551792611,on_time,1,ci,1,1564,82,18,2,H+H-,3
20.427397260273978,Adults,1162,f,CONincon_HappyReward,conINCON_HappyZero,left_face,0.8740748790199029,on_time,0,ci,1,1162,84,19,3,H+H-,3
20.427397260273978,Adults,1257,j,conINCON_HappyZero,CONincon_HappyReward,right_face,0.4864587147316368,on_time,1,ci,1,1257,85,20,3,H+H-,3
20.427397260273978,Adults,1076,j,conINCON_HappyZero,CONincon_HappyReward,right_face,0.49598418069093864,on_time,1,ci,1,1076,86,21,3,H+H-,3
20.427397260273978,Adults,2039,j,conINCON_HappyZero,CONincon_HappyReward,right_face,0.14718163565486098,on_time,1,ci,1,2039,88,22,3,H+H-,3
20.427397260273978,Adults,1353,j,conINCON_HappyZero,CONincon_HappyReward,right_face,0.5987284641192279,on_time,1,ci,1,1353,100,23,3,H+H-,3
20.427397260273978,Adults,1272,j,conINCON_HappyZero,CONincon_HappyReward,right_face,0.5102261601854341,on_time,1,ci,1,1272,101,24,3,H+H-,3
20.427397260273978,Adults,1302,f,CONincon_HappyReward,conINCON_HappyZero,left_face,0.7124143455742893,on_time,1,ci,1,1302,102,25,3,H+H-,3
20.427397260273978,Adults,1089,f,CONincon_HappyReward,conINCON_HappyZero,left_face,0.07965145135957341,on_time,1,ci,1,1089,104,26,3,H+H-,3
20.427397260273978,Adults,1079,f,CONincon_HappyReward,conINCON_HappyZero,left_face,0.01186756327862204,on_time,1,ci,1,1079,110,27,3,H+H-,3
20.427397260273978,Adults,1114,f,CONincon_HappyReward,conINCON_HappyZero,left_face,0.9871241425489488,on_time,0,ci,1,1114,112,28,4,H+H-,3
20.427397260273978,Adults,1260,j,CONincon_HappyReward,conINCON_HappyZero,left_face,0.3826465720046779,on_time,0,ci,0,1260,113,29,4,H+H-,3
20.427397260273978,Adults,1197,j,conINCON_HappyZero,CONincon_HappyReward,right_face,0.6640987653575228,on_time,1,ci,1,1197,114,30,4,H+H-,3
20.427397260273978,Adults,1693,j,CONincon_HappyReward,conINCON_HappyZero,left_face,0.8745241688247578,on_time,1,ci,0,1693,129,31,4,H+H-,3
20.427397260273978,Adults,1154,j,CONincon_HappyReward,conINCON_HappyZero,left_face,0.8112817924244089,on_time,1,ci,0,1154,132,32,4,H+H-,3
20.427397260273978,Adults,1069,f,conINCON_HappyZero,CONincon_HappyReward,right_face,0.5812310901255351,on_time,0,ci,0,1069,133,33,4,H+H-,3
20.427397260273978,Adults,2141,j,CONincon_HappyReward,conINCON_HappyZero,left_face,0.6109006139894309,on_time,0,ci,0,2141,134,34,4,H+H-,3
20.427397260273978,Adults,2499,j,CONincon_HappyReward,conINCON_HappyZero,left_face,0.12195127707110176,on_time,0,ci,0,2499,136,35,4,H+H-,3
20.427397260273978,Adults,1045,j,conINCON_HappyZero,CONincon_HappyReward,right_face,0.7348488927288814,on_time,1,ci,1,1045,145,36,4,H+H-,3
20.427397260273978,Adults,972,f,CONincon_HappyReward,conINCON_HappyZero,left_face,0.2408229815271825,on_time,1,ci,1,972,155,37,5,H+H-,3
20.427397260273978,Adults,830,f,CONincon_HappyReward,conINCON_HappyZero,left_face,0.7476391267509022,on_time,1,ci,1,830,156,38,5,H+H-,3
20.427397260273978,Adults,1240,j,conINCON_HappyZero,CONincon_HappyReward,right_face,0.838708501047583,on_time,0,ci,1,1240,157,39,5,H+H-,3
20.427397260273978,Adults,1121,f,CONincon_HappyReward,conINCON_HappyZero,left_face,0.9951626535634084,on_time,0,ci,1,1121,160,40,5,H+H-,3
20.427397260273978,Adults,920,f,CONincon_HappyReward,conINCON_HappyZero,left_face,0.6650794468856833,on_time,1,ci,1,920,164,41,5,H+H-,3
20.427397260273978,Adults,783,j,conINCON_HappyZero,CONincon_HappyReward,right_face,0.5471691436345492,on_time,1,ci,1,783,166,42,5,H+H-,3
20.427397260273978,Adults,880,j,conINCON_HappyZero,CONincon_HappyReward,right_face,0.0262509484011999,on_time,1,ci,1,880,168,43,5,H+H-,3
20.427397260273978,Adults,1412,f,CONincon_HappyReward,conINCON_HappyZero,left_face,0.8464743425275176,on_time,0,ci,1,1412,179,44,5,H+H-,3
20.427397260273978,Adults,798,j,conINCON_HappyZero,CONincon_HappyReward,right_face,0.731825965583645,on_time,1,ci,1,798,180,45,5,H+H-,3
20.427397260273978,Adults,2039,j,INCONcon_FearReward,inconCON_FearZero,left_face,0.23399488002709568,on_time,0,ic,0,2039,9,1,1,F+F-,3
20.427397260273978,Adults,1921,j,INCONcon_FearReward,inconCON_FearZero,left_face,0.5989442614941576,on_time,0,ic,0,1921,10,2,1,F+F-,3
20.427397260273978,Adults,1070,f,INCONcon_FearReward,inconCON_FearZero,left_face,0.3664849993708337,on_time,1,ic,1,1070,11,3,1,F+F-,3
20.427397260273978,Adults,1424,j,inconCON_FearZero,INCONcon_FearReward,right_face,0.14654676142271406,on_time,1,ic,1,1424,14,4,1,F+F-,3
20.427397260273978,Adults,1569,j,inconCON_FearZero,INCONcon_FearReward,right_face,0.5010661329819179,on_time,1,ic,1,1569,16,5,1,F+F-,3
20.427397260273978,Adults,1562,f,INCONcon_FearReward,inconCON_FearZero,left_face,0.5857819986467734,on_time,1,ic,1,1562,18,6,1,F+F-,3
20.427397260273978,Adults,1047,f,INCONcon_FearReward,inconCON_FearZero,left_face,0.16475996302991192,on_time,1,ic,1,1047,21,7,1,F+F-,3
20.427397260273978,Adults,900,f,INCONcon_FearReward,inconCON_FearZero,left_face,0.946716982746433,on_time,0,ic,1,900,30,8,1,F+F-,3
20.427397260273978,Adults,1167,j,inconCON_FearZero,INCONcon_FearReward,right_face,0.3075140071101645,on_time,1,ic,1,1167,33,9,1,F+F-,3
20.427397260273978,Adults,1195,f,INCONcon_FearReward,inconCON_FearZero,left_face,0.8509129642082482,on_time,0,ic,1,1195,36,10,2,F+F-,3
20.427397260273978,Adults,975,j,inconCON_FearZero,INCONcon_FearReward,right_face,0.02768430461611193,on_time,1,ic,1,975,38,11,2,F+F-,3
20.427397260273978,Adults,1093,j,inconCON_FearZero,INCONcon_FearReward,right_face,0.5475333345953843,on_time,1,ic,1,1093,40,12,2,F+F-,3
20.427397260273978,Adults,1117,j,inconCON_FearZero,INCONcon_FearReward,right_face,0.4997696374860936,on_time,1,ic,1,1117,54,13,2,F+F-,3
20.427397260273978,Adults,982,f,INCONcon_FearReward,inconCON_FearZero,left_face,0.17921671839049025,on_time,1,ic,1,982,56,14,2,F+F-,3
20.427397260273978,Adults,1476,j,inconCON_FearZero,INCONcon_FearReward,right_face,0.10505492079317524,on_time,1,ic,1,1476,60,15,2,F+F-,3
20.427397260273978,Adults,1015,f,INCONcon_FearReward,inconCON_FearZero,left_face,0.8387209551659025,on_time,0,ic,1,1015,62,16,2,F+F-,3
20.427397260273978,Adults,973,f,INCONcon_FearReward,inconCON_FearZero,left_face,0.6615298357314718,on_time,1,ic,1,973,64,17,2,F+F-,3
20.427397260273978,Adults,1261,f,INCONcon_FearReward,inconCON_FearZero,left_face,0.9069941109774168,on_time,0,ic,1,1261,67,18,2,F+F-,3
20.427397260273978,Adults,1182,j,inconCON_FearZero,INCONcon_FearReward,right_face,0.42555065899996225,on_time,1,ic,1,1182,68,19,3,F+F-,3
20.427397260273978,Adults,1130,f,INCONcon_FearReward,inconCON_FearZero,left_face,0.02401952145238795,on_time,1,ic,1,1130,76,20,3,F+F-,3
20.427397260273978,Adults,1102,j,inconCON_FearZero,INCONcon_FearReward,right_face,0.592529280306348,on_time,1,ic,1,1102,77,21,3,F+F-,3
20.427397260273978,Adults,1243,f,INCONcon_FearReward,inconCON_FearZero,left_face,0.02359945676845676,on_time,1,ic,1,1243,78,22,3,F+F-,3
20.427397260273978,Adults,990,j,inconCON_FearZero,INCONcon_FearReward,right_face,0.3717679747078779,on_time,1,ic,1,990,79,23,3,F+F-,3
20.427397260273978,Adults,1566,j,inconCON_FearZero,INCONcon_FearReward,right_face,0.5532219657076989,on_time,1,ic,1,1566,81,24,3,F+F-,3
20.427397260273978,Adults,974,f,INCONcon_FearReward,inconCON_FearZero,left_face,0.3146931319495594,on_time,1,ic,1,974,87,25,3,F+F-,3
20.427397260273978,Adults,930,f,INCONcon_FearReward,inconCON_FearZero,left_face,0.05085412742172401,on_time,1,ic,1,930,91,26,3,F+F-,3
20.427397260273978,Adults,2273,f,INCONcon_FearReward,inconCON_FearZero,left_face,0.9640209021798724,on_time,0,ic,1,2273,95,27,3,F+F-,3
20.427397260273978,Adults,856,f,INCONcon_FearReward,inconCON_FearZero,left_face,0.455002948418759,on_time,1,ic,1,856,107,28,4,F+F-,3
20.427397260273978,Adults,1679,f,INCONcon_FearReward,inconCON_FearZero,left_face,0.5198796171274906,on_time,1,ic,1,1679,111,29,4,F+F-,3
20.427397260273978,Adults,1117,j,inconCON_FearZero,INCONcon_FearReward,right_face,0.835965259590868,on_time,0,ic,1,1117,116,30,4,F+F-,3
20.427397260273978,Adults,788,j,inconCON_FearZero,INCONcon_FearReward,right_face,0.9203040942333278,on_time,0,ic,1,788,123,31,4,F+F-,3
20.427397260273978,Adults,1254,j,inconCON_FearZero,INCONcon_FearReward,right_face,0.7152114818160418,on_time,1,ic,1,1254,128,32,4,F+F-,3
20.427397260273978,Adults,1802,f,INCONcon_FearReward,inconCON_FearZero,left_face,0.6200480458611712,on_time,1,ic,1,1802,131,33,4,F+F-,3
20.427397260273978,Adults,1158,j,inconCON_FearZero,INCONcon_FearReward,right_face,0.9610459798412558,on_time,0,ic,1,1158,135,34,4,F+F-,3
20.427397260273978,Adults,923,j,inconCON_FearZero,INCONcon_FearReward,right_face,0.5655535759469743,on_time,1,ic,1,923,139,35,4,F+F-,3
20.427397260273978,Adults,1271,f,INCONcon_FearReward,inconCON_FearZero,left_face,0.8220803505753522,on_time,0,ic,1,1271,142,36,4,F+F-,3
20.427397260273978,Adults,929,j,inconCON_FearZero,INCONcon_FearReward,right_face,0.08490099769882709,on_time,1,ic,1,929,146,37,5,F+F-,3
20.427397260273978,Adults,1067,f,INCONcon_FearReward,inconCON_FearZero,left_face,0.5326635403762812,on_time,1,ic,1,1067,151,38,5,F+F-,3
20.427397260273978,Adults,857,f,INCONcon_FearReward,inconCON_FearZero,left_face,0.2653315263963678,on_time,1,ic,1,857,158,39,5,F+F-,3
20.427397260273978,Adults,698,f,INCONcon_FearReward,inconCON_FearZero,left_face,0.8459283475964827,on_time,0,ic,1,698,159,40,5,F+F-,3
20.427397260273978,Adults,870,f,INCONcon_FearReward,inconCON_FearZero,left_face,0.1574136083953115,on_time,1,ic,1,870,161,41,5,F+F-,3
20.427397260273978,Adults,1179,j,inconCON_FearZero,INCONcon_FearReward,right_face,0.7433084396769942,on_time,1,ic,1,1179,171,42,5,F+F-,3
20.427397260273978,Adults,1037,j,inconCON_FearZero,INCONcon_FearReward,right_face,0.8992687748593682,on_time,0,ic,1,1037,173,43,5,F+F-,3
20.427397260273978,Adults,893,f,INCONcon_FearReward,inconCON_FearZero,left_face,0.9222813039949458,on_time,0,ic,1,893,177,44,5,F+F-,3
20.427397260273978,Adults,939,f,INCONcon_FearReward,inconCON_FearZero,left_face,0.2722163778343072,on_time,1,ic,1,939,178,45,5,F+F-,3
20.427397260273978,Adults,1130,f,inconINCON_HappyZero,INCONincon_FearReward,right_face,0.31270055713653466,on_time,0,ii,0,1130,2,1,1,F+H-,3
20.427397260273978,Adults,1368,f,inconINCON_HappyZero,INCONincon_FearReward,right_face,0.2911521514035518,on_time,0,ii,0,1368,3,2,1,F+H-,3
20.427397260273978,Adults,1379,j,INCONincon_FearReward,inconINCON_HappyZero,left_face,0.1862874278837372,on_time,0,ii,0,1379,4,3,1,F+H-,3
20.427397260273978,Adults,1372,f,inconINCON_HappyZero,INCONincon_FearReward,right_face,0.2389560026283566,on_time,0,ii,0,1372,8,4,1,F+H-,3
20.427397260273978,Adults,1753,f,inconINCON_HappyZero,INCONincon_FearReward,right_face,0.9800496368824504,on_time,1,ii,0,1753,15,5,1,F+H-,3
20.427397260273978,Adults,1857,f,inconINCON_HappyZero,INCONincon_FearReward,right_face,0.91851042398108,on_time,1,ii,0,1857,19,6,1,F+H-,3
20.427397260273978,Adults,1881,j,INCONincon_FearReward,inconINCON_HappyZero,left_face,0.756396959047485,on_time,1,ii,0,1881,22,7,1,F+H-,3
20.427397260273978,Adults,1464,j,INCONincon_FearReward,inconINCON_HappyZero,left_face,0.4041998401349806,on_time,0,ii,0,1464,28,8,1,F+H-,3
20.427397260273978,Adults,1142,j,INCONincon_FearReward,inconINCON_HappyZero,left_face,0.19773666945141977,on_time,0,ii,0,1142,29,9,1,F+H-,3
20.427397260273978,Adults,1588,j,INCONincon_FearReward,inconINCON_HappyZero,left_face,0.15532468585648496,on_time,0,ii,0,1588,31,10,2,F+H-,3
20.427397260273978,Adults,1267,f,inconINCON_HappyZero,INCONincon_FearReward,right_face,0.4505632078939652,on_time,0,ii,0,1267,34,11,2,F+H-,3
20.427397260273978,Adults,1635,j,INCONincon_FearReward,inconINCON_HappyZero,left_face,0.00514186409883921,on_time,0,ii,0,1635,43,12,2,F+H-,3
20.427397260273978,Adults,1455,j,INCONincon_FearReward,inconINCON_HappyZero,left_face,0.740978003005119,on_time,0,ii,0,1455,49,13,2,F+H-,3
20.427397260273978,Adults,1184,f,inconINCON_HappyZero,INCONincon_FearReward,right_face,0.7092527698635844,on_time,0,ii,0,1184,50,14,2,F+H-,3
20.427397260273978,Adults,976,f,inconINCON_HappyZero,INCONincon_FearReward,right_face,0.3337771135034331,on_time,0,ii,0,976,51,15,2,F+H-,3
20.427397260273978,Adults,2046,j,INCONincon_FearReward,inconINCON_HappyZero,left_face,0.6099690325071814,on_time,0,ii,0,2046,61,16,2,F+H-,3
20.427397260273978,Adults,1267,j,INCONincon_FearReward,inconINCON_HappyZero,left_face,0.7939744466320748,on_time,1,ii,0,1267,65,17,2,F+H-,3
20.427397260273978,Adults,974,j,INCONincon_FearReward,inconINCON_HappyZero,left_face,0.3052407145235101,on_time,0,ii,0,974,71,18,2,F+H-,3
20.427397260273978,Adults,968,f,inconINCON_HappyZero,INCONincon_FearReward,right_face,0.071441536007536,on_time,0,ii,0,968,74,19,3,F+H-,3
20.427397260273978,Adults,1312,j,INCONincon_FearReward,inconINCON_HappyZero,left_face,0.30424066633124736,on_time,0,ii,0,1312,75,20,3,F+H-,3
20.427397260273978,Adults,1606,j,INCONincon_FearReward,inconINCON_HappyZero,left_face,0.9048136167825992,on_time,1,ii,0,1606,80,21,3,F+H-,3
20.427397260273978,Adults,1139,f,inconINCON_HappyZero,INCONincon_FearReward,right_face,0.14396315800558537,on_time,0,ii,0,1139,90,22,3,F+H-,3
20.427397260273978,Adults,1088,f,inconINCON_HappyZero,INCONincon_FearReward,right_face,0.8713452506129327,on_time,1,ii,0,1088,98,23,3,F+H-,3
20.427397260273978,Adults,947,f,inconINCON_HappyZero,INCONincon_FearReward,right_face,0.14110597630486588,on_time,0,ii,0,947,99,24,3,F+H-,3
20.427397260273978,Adults,1032,f,inconINCON_HappyZero,INCONincon_FearReward,right_face,0.4348320195856257,on_time,0,ii,0,1032,103,25,3,F+H-,3
20.427397260273978,Adults,986,f,inconINCON_HappyZero,INCONincon_FearReward,right_face,0.42714584917937226,on_time,0,ii,0,986,105,26,3,F+H-,3
20.427397260273978,Adults,1066,j,INCONincon_FearReward,inconINCON_HappyZero,left_face,0.27598646264658044,on_time,0,ii,0,1066,106,27,3,F+H-,3
20.427397260273978,Adults,1365,j,INCONincon_FearReward,inconINCON_HappyZero,left_face,0.8385435498341305,on_time,1,ii,0,1365,109,28,4,F+H-,3
20.427397260273978,Adults,1238,f,inconINCON_HappyZero,INCONincon_FearReward,right_face,0.5297448068494726,on_time,0,ii,0,1238,118,29,4,F+H-,3
20.427397260273978,Adults,997,f,inconINCON_HappyZero,INCONincon_FearReward,right_face,0.34177838937620586,on_time,0,ii,0,997,120,30,4,F+H-,3
20.427397260273978,Adults,1099,f,inconINCON_HappyZero,INCONincon_FearReward,right_face,0.5112309358408724,on_time,0,ii,0,1099,121,31,4,F+H-,3
20.427397260273978,Adults,884,f,inconINCON_HappyZero,INCONincon_FearReward,right_face,0.4286435116154712,on_time,0,ii,0,884,126,32,4,F+H-,3
20.427397260273978,Adults,803,j,INCONincon_FearReward,inconINCON_HappyZero,left_face,0.09638058026486784,on_time,0,ii,0,803,127,33,4,F+H-,3
20.427397260273978,Adults,1337,f,inconINCON_HappyZero,INCONincon_FearReward,right_face,0.7428821133607393,on_time,0,ii,0,1337,130,34,4,F+H-,3
20.427397260273978,Adults,1111,j,INCONincon_FearReward,inconINCON_HappyZero,left_face,0.993479978023811,on_time,1,ii,0,1111,137,35,4,F+H-,3
20.427397260273978,Adults,835,j,INCONincon_FearReward,inconINCON_HappyZero,left_face,0.6011178654410707,on_time,0,ii,0,835,144,36,4,F+H-,3
20.427397260273978,Adults,946,j,INCONincon_FearReward,inconINCON_HappyZero,left_face,0.4284683719659639,on_time,0,ii,0,946,148,37,5,F+H-,3
20.427397260273978,Adults,1123,j,INCONincon_FearReward,inconINCON_HappyZero,left_face,0.1921498863811768,on_time,0,ii,0,1123,149,38,5,F+H-,3
20.427397260273978,Adults,1549,f,inconINCON_HappyZero,INCONincon_FearReward,right_face,0.10821608044446784,on_time,0,ii,0,1549,150,39,5,F+H-,3
20.427397260273978,Adults,1168,j,inconINCON_HappyZero,INCONincon_FearReward,right_face,0.05544610221353086,on_time,1,ii,1,1168,152,40,5,F+H-,3
20.427397260273978,Adults,2780,j,INCONincon_FearReward,inconINCON_HappyZero,left_face,0.02357562227079479,on_time,0,ii,0,2780,170,41,5,F+H-,3
20.427397260273978,Adults,1326,f,INCONincon_FearReward,inconINCON_HappyZero,left_face,0.39583597941537185,on_time,1,ii,1,1326,172,42,5,F+H-,3
20.427397260273978,Adults,951,j,inconINCON_HappyZero,INCONincon_FearReward,right_face,0.324712850276881,on_time,1,ii,1,951,174,43,5,F+H-,3
20.427397260273978,Adults,834,j,inconINCON_HappyZero,INCONincon_FearReward,right_face,0.4164604989553522,on_time,1,ii,1,834,175,44,5,F+H-,3
20.427397260273978,Adults,1198,j,inconINCON_HappyZero,INCONincon_FearReward,right_face,0.8346055653345203,on_time,0,ii,1,1198,176,45,5,F+H-,3
20.643835616438356,Adults,2297,f,CONcon_HappyReward,conCON_FearZero,left_face,0.03651066372211775,on_time,1,cc,1,2297,7,1,1,H+F-,4
20.643835616438356,Adults,1751,j,conCON_FearZero,CONcon_HappyReward,right_face,0.8919692784192019,on_time,0,cc,1,1751,8,2,1,H+F-,4
20.643835616438356,Adults,2320,f,CONcon_HappyReward,conCON_FearZero,left_face,0.5722318289288366,on_time,1,cc,1,2320,9,3,1,H+F-,4
20.643835616438356,Adults,2114,f,CONcon_HappyReward,conCON_FearZero,left_face,0.9918715503402044,on_time,0,cc,1,2114,14,4,1,H+F-,4
20.643835616438356,Adults,1314,j,CONcon_HappyReward,conCON_FearZero,left_face,0.8803874187087153,on_time,1,cc,0,1314,15,5,1,H+F-,4
20.643835616438356,Adults,2903,f,conCON_FearZero,CONcon_HappyReward,right_face,0.4202479831738888,on_time,0,cc,0,2903,19,6,1,H+F-,4
20.643835616438356,Adults,2426,j,conCON_FearZero,CONcon_HappyReward,right_face,0.7345833794831063,on_time,1,cc,1,2426,20,7,1,H+F-,4
20.643835616438356,Adults,3005,j,CONcon_HappyReward,conCON_FearZero,left_face,0.5266236367953485,on_time,0,cc,0,3005,30,8,1,H+F-,4
20.643835616438356,Adults,2400,f,CONcon_HappyReward,conCON_FearZero,left_face,0.03263395952492631,on_time,1,cc,1,2400,34,9,1,H+F-,4
20.643835616438356,Adults,370,j,CONcon_HappyReward,conCON_FearZero,left_face,0.9669307315796924,late_choose_now,1,cc,0,NA,40,10,2,H+F-,4
20.643835616438356,Adults,1490,j,conCON_FearZero,CONcon_HappyReward,right_face,0.42201588607084783,on_time,1,cc,1,1490,44,11,2,H+F-,4
20.643835616438356,Adults,1819,j,conCON_FearZero,CONcon_HappyReward,right_face,0.13824609534045185,on_time,1,cc,1,1819,46,12,2,H+F-,4
20.643835616438356,Adults,254,f,conCON_FearZero,CONcon_HappyReward,right_face,0.4831260760619589,late_choose_now,0,cc,0,NA,48,13,2,H+F-,4
20.643835616438356,Adults,2572,f,CONcon_HappyReward,conCON_FearZero,left_face,0.7714861945454479,on_time,0,cc,1,2572,53,14,2,H+F-,4
20.643835616438356,Adults,2578,j,CONcon_HappyReward,conCON_FearZero,left_face,0.27365356313927713,on_time,0,cc,0,2578,55,15,2,H+F-,4
20.643835616438356,Adults,2074,j,conCON_FearZero,CONcon_HappyReward,right_face,0.09127714537558872,on_time,1,cc,1,2074,72,16,2,H+F-,4
20.643835616438356,Adults,2831,f,CONcon_HappyReward,conCON_FearZero,left_face,6.0532420468906e-4,on_time,1,cc,1,2831,83,17,2,H+F-,4
20.643835616438356,Adults,1752,j,conCON_FearZero,CONcon_HappyReward,right_face,0.02903944614956,on_time,1,cc,1,1752,86,18,2,H+F-,4
20.643835616438356,Adults,1381,f,CONcon_HappyReward,conCON_FearZero,left_face,0.7961685558723084,on_time,0,cc,1,1381,87,19,3,H+F-,4
20.643835616438356,Adults,1300,f,CONcon_HappyReward,conCON_FearZero,left_face,0.12895593920642456,on_time,1,cc,1,1300,94,20,3,H+F-,4
20.643835616438356,Adults,1836,j,conCON_FearZero,CONcon_HappyReward,right_face,0.0439754245773718,on_time,1,cc,1,1836,100,21,3,H+F-,4
20.643835616438356,Adults,1545,j,conCON_FearZero,CONcon_HappyReward,right_face,0.4349010231038264,on_time,1,cc,1,1545,101,22,3,H+F-,4
20.643835616438356,Adults,1208,j,conCON_FearZero,CONcon_HappyReward,right_face,0.1712066306505864,on_time,1,cc,1,1208,102,23,3,H+F-,4
20.643835616438356,Adults,2199,j,conCON_FearZero,CONcon_HappyReward,right_face,0.6526289606326405,on_time,1,cc,1,2199,104,24,3,H+F-,4
20.643835616438356,Adults,2227,f,CONcon_HappyReward,conCON_FearZero,left_face,0.5138789750277732,on_time,1,cc,1,2227,107,25,3,H+F-,4
20.643835616438356,Adults,803,j,conCON_FearZero,CONcon_HappyReward,right_face,0.375669389798587,on_time,1,cc,1,803,108,26,3,H+F-,4
20.643835616438356,Adults,1330,f,CONcon_HappyReward,conCON_FearZero,left_face,0.207965704293251,on_time,1,cc,1,1330,110,27,3,H+F-,4
20.643835616438356,Adults,1485,f,CONcon_HappyReward,conCON_FearZero,left_face,0.979146524439058,on_time,0,cc,1,1485,114,28,4,H+F-,4
20.643835616438356,Adults,1196,f,CONcon_HappyReward,conCON_FearZero,left_face,0.6276645729721781,on_time,1,cc,1,1196,117,29,4,H+F-,4
20.643835616438356,Adults,1165,j,conCON_FearZero,CONcon_HappyReward,right_face,0.21263570481391603,on_time,1,cc,1,1165,119,30,4,H+F-,4
20.643835616438356,Adults,2374,f,CONcon_HappyReward,conCON_FearZero,left_face,0.20823562095794035,on_time,1,cc,1,2374,121,31,4,H+F-,4
20.643835616438356,Adults,1426,f,CONcon_HappyReward,conCON_FearZero,left_face,0.07309982282949323,on_time,1,cc,1,1426,123,32,4,H+F-,4
20.643835616438356,Adults,1435,j,conCON_FearZero,CONcon_HappyReward,right_face,0.4750688963814538,on_time,1,cc,1,1435,126,33,4,H+F-,4
20.643835616438356,Adults,935,f,CONcon_HappyReward,conCON_FearZero,left_face,0.7088613494825065,on_time,1,cc,1,935,131,34,4,H+F-,4
20.643835616438356,Adults,1315,j,conCON_FearZero,CONcon_HappyReward,right_face,0.7042052891717385,on_time,1,cc,1,1315,137,35,4,H+F-,4
20.643835616438356,Adults,1156,j,conCON_FearZero,CONcon_HappyReward,right_face,0.19026327109262664,on_time,1,cc,1,1156,141,36,4,H+F-,4
20.643835616438356,Adults,1093,f,CONcon_HappyReward,conCON_FearZero,left_face,0.2496747362711305,on_time,1,cc,1,1093,144,37,5,H+F-,4
20.643835616438356,Adults,852,j,conCON_FearZero,CONcon_HappyReward,right_face,0.3866120368529602,on_time,1,cc,1,852,145,38,5,H+F-,4
20.643835616438356,Adults,133,f,CONcon_HappyReward,conCON_FearZero,left_face,0.9197175038470872,late_choose_now,0,cc,1,NA,147,39,5,H+F-,4
20.643835616438356,Adults,913,f,CONcon_HappyReward,conCON_FearZero,left_face,0.38610355554596176,on_time,1,cc,1,913,150,40,5,H+F-,4
20.643835616438356,Adults,735,f,conCON_FearZero,CONcon_HappyReward,right_face,0.2183888372743037,on_time,0,cc,0,735,162,41,5,H+F-,4
20.643835616438356,Adults,1292,j,conCON_FearZero,CONcon_HappyReward,right_face,0.4640662717977024,on_time,1,cc,1,1292,168,42,5,H+F-,4
20.643835616438356,Adults,1216,j,conCON_FearZero,CONcon_HappyReward,right_face,0.5705384562999167,on_time,1,cc,1,1216,175,43,5,H+F-,4
20.643835616438356,Adults,1041,j,conCON_FearZero,CONcon_HappyReward,right_face,0.3789441466271086,on_time,1,cc,1,1041,179,44,5,H+F-,4
20.643835616438356,Adults,1423,j,conCON_FearZero,CONcon_HappyReward,right_face,0.3233502776924102,on_time,1,cc,1,1423,180,45,5,H+F-,4
20.643835616438356,Adults,2869,f,conINCON_HappyZero,CONincon_HappyReward,right_face,0.6702345063937587,on_time,0,ci,0,2869,2,1,1,H+H-,4
20.643835616438356,Adults,2993,j,conINCON_HappyZero,CONincon_HappyReward,right_face,0.7036772437359702,on_time,1,ci,1,2993,3,2,1,H+H-,4
20.643835616438356,Adults,2673,j,conINCON_HappyZero,CONincon_HappyReward,right_face,0.44892259918278454,on_time,1,ci,1,2673,6,3,1,H+H-,4
20.643835616438356,Adults,1858,f,conINCON_HappyZero,CONincon_HappyReward,right_face,0.6269576710437792,on_time,0,ci,0,1858,11,4,1,H+H-,4
20.643835616438356,Adults,1734,f,CONincon_HappyReward,conINCON_HappyZero,left_face,0.561286836513891,on_time,1,ci,1,1734,12,5,1,H+H-,4
20.643835616438356,Adults,861,f,conINCON_HappyZero,CONincon_HappyReward,right_face,0.5346409693626479,late_choose_now,0,ci,0,NA,24,6,1,H+H-,4
20.643835616438356,Adults,1478,j,conINCON_HappyZero,CONincon_HappyReward,right_face,0.31800280486419585,on_time,1,ci,1,1478,26,7,1,H+H-,4
20.643835616438356,Adults,1511,f,conINCON_HappyZero,CONincon_HappyReward,right_face,0.3027555576790344,on_time,0,ci,0,1511,28,8,1,H+H-,4
20.643835616438356,Adults,366,f,conINCON_HappyZero,CONincon_HappyReward,right_face,0.7039327016151948,late_choose_now,0,ci,0,NA,32,9,1,H+H-,4
20.643835616438356,Adults,1215,f,conINCON_HappyZero,CONincon_HappyReward,right_face,0.6977229417323152,on_time,0,ci,0,1215,37,10,2,H+H-,4
20.643835616438356,Adults,1068,f,CONincon_HappyReward,conINCON_HappyZero,left_face,0.5604276851342878,late_choose_now,1,ci,1,NA,38,11,2,H+H-,4
20.643835616438356,Adults,1311,f,conINCON_HappyZero,CONincon_HappyReward,right_face,0.1579678069278676,late_choose_now,0,ci,0,NA,45,12,2,H+H-,4
20.643835616438356,Adults,1312,j,conINCON_HappyZero,CONincon_HappyReward,right_face,0.04842830050851221,on_time,1,ci,1,1312,47,13,2,H+H-,4
20.643835616438356,Adults,204,j,CONincon_HappyReward,conINCON_HappyZero,left_face,0.3318917655856082,late_choose_now,0,ci,0,NA,49,14,2,H+H-,4
20.643835616438356,Adults,1651,f,CONincon_HappyReward,conINCON_HappyZero,left_face,0.9030955392505016,on_time,0,ci,1,1651,50,15,2,H+H-,4
20.643835616438356,Adults,2212,f,conINCON_HappyZero,CONincon_HappyReward,right_face,0.825070939635886,on_time,1,ci,0,2212,62,16,2,H+H-,4
20.643835616438356,Adults,1355,f,conINCON_HappyZero,CONincon_HappyReward,right_face,0.15239485019806254,on_time,0,ci,0,1355,64,17,2,H+H-,4
20.643835616438356,Adults,1541,j,CONincon_HappyReward,conINCON_HappyZero,left_face,0.7165590285170753,on_time,0,ci,0,1541,65,18,2,H+H-,4
20.643835616438356,Adults,262,f,conINCON_HappyZero,CONincon_HappyReward,right_face,0.5618947506387413,late_choose_now,0,ci,0,NA,67,19,3,H+H-,4
20.643835616438356,Adults,2080,j,CONincon_HappyReward,conINCON_HappyZero,left_face,0.7273067457136255,on_time,0,ci,0,2080,70,20,3,H+H-,4
20.643835616438356,Adults,1460,j,conINCON_HappyZero,CONincon_HappyReward,right_face,0.6105414416363495,on_time,1,ci,1,1460,71,21,3,H+H-,4
20.643835616438356,Adults,2033,f,CONincon_HappyReward,conINCON_HappyZero,left_face,0.896791032758959,on_time,0,ci,1,2033,73,22,3,H+H-,4
20.643835616438356,Adults,1363,f,CONincon_HappyReward,conINCON_HappyZero,left_face,0.8507138690946738,on_time,0,ci,1,1363,74,23,3,H+H-,4
20.643835616438356,Adults,2553,j,conINCON_HappyZero,CONincon_HappyReward,right_face,0.7222264752066136,on_time,1,ci,1,2553,76,24,3,H+H-,4
20.643835616438356,Adults,1027,f,CONincon_HappyReward,conINCON_HappyZero,left_face,0.38593333339025726,on_time,1,ci,1,1027,77,25,3,H+H-,4
20.643835616438356,Adults,1086,f,conINCON_HappyZero,CONincon_HappyReward,right_face,0.7733379798673174,late_choose_now,1,ci,0,NA,98,26,3,H+H-,4
20.643835616438356,Adults,1301,f,CONincon_HappyReward,conINCON_HappyZero,left_face,0.09524961868971826,on_time,1,ci,1,1301,105,27,3,H+H-,4
20.643835616438356,Adults,706,f,CONincon_HappyReward,conINCON_HappyZero,left_face,0.8594344125363953,on_time,0,ci,1,706,106,28,4,H+H-,4
20.643835616438356,Adults,1577,j,conINCON_HappyZero,CONincon_HappyReward,right_face,0.5635698381231709,on_time,1,ci,1,1577,109,29,4,H+H-,4
20.643835616438356,Adults,964,f,CONincon_HappyReward,conINCON_HappyZero,left_face,0.08441584514869627,on_time,1,ci,1,964,112,30,4,H+H-,4
20.643835616438356,Adults,1534,j,conINCON_HappyZero,CONincon_HappyReward,right_face,0.4622847833012913,on_time,1,ci,1,1534,129,31,4,H+H-,4
20.643835616438356,Adults,671,f,CONincon_HappyReward,conINCON_HappyZero,left_face,0.2484283980909252,on_time,1,ci,1,671,130,32,4,H+H-,4
20.643835616438356,Adults,918,f,CONincon_HappyReward,conINCON_HappyZero,left_face,0.5092787782463284,on_time,1,ci,1,918,132,33,4,H+H-,4
20.643835616438356,Adults,655,f,CONincon_HappyReward,conINCON_HappyZero,left_face,0.94812855389206,on_time,0,ci,1,655,133,34,4,H+H-,4
20.643835616438356,Adults,1075,f,CONincon_HappyReward,conINCON_HappyZero,left_face,0.6666632535126382,on_time,1,ci,1,1075,142,35,4,H+H-,4
20.643835616438356,Adults,606,f,CONincon_HappyReward,conINCON_HappyZero,left_face,0.5559239783620711,on_time,1,ci,1,606,143,36,4,H+H-,4
20.643835616438356,Adults,1593,j,conINCON_HappyZero,CONincon_HappyReward,right_face,0.4172573744626435,on_time,1,ci,1,1593,148,37,5,H+H-,4
20.643835616438356,Adults,701,j,conINCON_HappyZero,CONincon_HappyReward,right_face,0.3437334105207359,on_time,1,ci,1,701,149,38,5,H+H-,4
20.643835616438356,Adults,1208,j,conINCON_HappyZero,CONincon_HappyReward,right_face,0.4228313062044342,on_time,1,ci,1,1208,155,39,5,H+H-,4
20.643835616438356,Adults,639,f,CONincon_HappyReward,conINCON_HappyZero,left_face,0.775829431779788,on_time,0,ci,1,639,157,40,5,H+H-,4
20.643835616438356,Adults,806,j,conINCON_HappyZero,CONincon_HappyReward,right_face,0.17986961842560256,on_time,1,ci,1,806,158,41,5,H+H-,4
20.643835616438356,Adults,866,f,CONincon_HappyReward,conINCON_HappyZero,left_face,0.736374571203235,on_time,1,ci,1,866,169,42,5,H+H-,4
20.643835616438356,Adults,1167,f,CONincon_HappyReward,conINCON_HappyZero,left_face,0.31597103329634035,on_time,1,ci,1,1167,171,43,5,H+H-,4
20.643835616438356,Adults,948,j,conINCON_HappyZero,CONincon_HappyReward,right_face,0.1625397300892153,on_time,1,ci,1,948,173,44,5,H+H-,4
20.643835616438356,Adults,906,j,conINCON_HappyZero,CONincon_HappyReward,right_face,0.5397744535750799,on_time,1,ci,1,906,178,45,5,H+H-,4
20.643835616438356,Adults,2475,j,inconCON_FearZero,INCONcon_FearReward,right_face,0.5696540735030544,on_time,1,ic,1,2475,1,1,1,F+F-,4
20.643835616438356,Adults,2938,f,INCONcon_FearReward,inconCON_FearZero,left_face,0.8706993396606435,on_time,0,ic,1,2938,5,2,1,F+F-,4
20.643835616438356,Adults,1637,j,INCONcon_FearReward,inconCON_FearZero,left_face,0.06421248909794186,on_time,0,ic,0,1637,10,3,1,F+F-,4
20.643835616438356,Adults,1651,f,INCONcon_FearReward,inconCON_FearZero,left_face,0.9262488792564908,on_time,0,ic,1,1651,13,4,1,F+F-,4
20.643835616438356,Adults,2955,j,inconCON_FearZero,INCONcon_FearReward,right_face,0.07346392342308206,on_time,1,ic,1,2955,16,5,1,F+F-,4
20.643835616438356,Adults,2544,j,inconCON_FearZero,INCONcon_FearReward,right_face,0.02636848974528316,on_time,1,ic,1,2544,25,6,1,F+F-,4
20.643835616438356,Adults,1689,j,INCONcon_FearReward,inconCON_FearZero,left_face,0.3373965976074098,on_time,0,ic,0,1689,27,7,1,F+F-,4
20.643835616438356,Adults,2420,j,inconCON_FearZero,INCONcon_FearReward,right_face,0.5467965081991943,on_time,1,ic,1,2420,29,8,1,F+F-,4
20.643835616438356,Adults,470,f,INCONcon_FearReward,inconCON_FearZero,left_face,0.7883587787462252,late_choose_now,0,ic,1,NA,33,9,1,F+F-,4
20.643835616438356,Adults,2823,j,inconCON_FearZero,INCONcon_FearReward,right_face,0.3498291683606536,on_time,1,ic,1,2823,39,10,2,F+F-,4
20.643835616438356,Adults,96,j,inconCON_FearZero,INCONcon_FearReward,right_face,0.4924190601805871,late_choose_now,1,ic,1,NA,42,11,2,F+F-,4
20.643835616438356,Adults,1010,j,inconCON_FearZero,INCONcon_FearReward,right_face,0.1014158326172896,on_time,1,ic,1,1010,51,12,2,F+F-,4
20.643835616438356,Adults,1648,j,inconCON_FearZero,INCONcon_FearReward,right_face,0.15273542450273905,on_time,1,ic,1,1648,56,13,2,F+F-,4
20.643835616438356,Adults,2654,f,inconCON_FearZero,INCONcon_FearReward,right_face,0.7250654513669654,on_time,0,ic,0,2654,57,14,2,F+F-,4
20.643835616438356,Adults,1922,j,inconCON_FearZero,INCONcon_FearReward,right_face,0.00507102308207141,on_time,1,ic,1,1922,60,15,2,F+F-,4
20.643835616438356,Adults,216,f,INCONcon_FearReward,inconCON_FearZero,left_face,0.5773507939686102,late_choose_now,1,ic,1,NA,61,16,2,F+F-,4
20.643835616438356,Adults,2278,f,INCONcon_FearReward,inconCON_FearZero,left_face,0.953791869063316,on_time,0,ic,1,2278,69,17,2,F+F-,4
20.643835616438356,Adults,1594,f,INCONcon_FearReward,inconCON_FearZero,left_face,0.7092476385933908,on_time,1,ic,1,1594,79,18,2,F+F-,4
20.643835616438356,Adults,1032,j,inconCON_FearZero,INCONcon_FearReward,right_face,0.13186547189904596,on_time,1,ic,1,1032,80,19,3,F+F-,4
20.643835616438356,Adults,871,f,INCONcon_FearReward,inconCON_FearZero,left_face,0.17835182744925815,on_time,1,ic,1,871,81,20,3,F+F-,4
20.643835616438356,Adults,835,j,inconCON_FearZero,INCONcon_FearReward,right_face,0.9935821230519328,on_time,0,ic,1,835,82,21,3,F+F-,4
20.643835616438356,Adults,1162,f,INCONcon_FearReward,inconCON_FearZero,left_face,0.6517439301315007,on_time,1,ic,1,1162,84,22,3,F+F-,4
20.643835616438356,Adults,2113,f,INCONcon_FearReward,inconCON_FearZero,left_face,0.15025514389042804,on_time,1,ic,1,2113,85,23,3,F+F-,4
20.643835616438356,Adults,2455,f,INCONcon_FearReward,inconCON_FearZero,left_face,0.738524550970584,on_time,1,ic,1,2455,89,24,3,F+F-,4
20.643835616438356,Adults,696,f,INCONcon_FearReward,inconCON_FearZero,left_face,0.715397421355844,on_time,1,ic,1,696,90,25,3,F+F-,4
20.643835616438356,Adults,1129,j,inconCON_FearZero,INCONcon_FearReward,right_face,0.5889590517285297,on_time,1,ic,1,1129,91,26,3,F+F-,4
20.643835616438356,Adults,1045,f,INCONcon_FearReward,inconCON_FearZero,left_face,0.7785324328714505,on_time,0,ic,1,1045,93,27,3,F+F-,4
20.643835616438356,Adults,970,f,INCONcon_FearReward,inconCON_FearZero,left_face,0.5844904548808272,on_time,1,ic,1,970,96,28,4,F+F-,4
20.643835616438356,Adults,1043,j,inconCON_FearZero,INCONcon_FearReward,right_face,0.3993855758926599,on_time,1,ic,1,1043,97,29,4,F+F-,4
20.643835616438356,Adults,1115,j,inconCON_FearZero,INCONcon_FearReward,right_face,0.3113940855491111,on_time,1,ic,1,1115,111,30,4,F+F-,4
20.643835616438356,Adults,1115,f,INCONcon_FearReward,inconCON_FearZero,left_face,0.8951845254461848,on_time,0,ic,1,1115,124,31,4,F+F-,4
20.643835616438356,Adults,855,f,INCONcon_FearReward,inconCON_FearZero,left_face,0.1331120531824721,on_time,1,ic,1,855,125,32,4,F+F-,4
20.643835616438356,Adults,1309,j,inconCON_FearZero,INCONcon_FearReward,right_face,0.8353517823874235,on_time,0,ic,1,1309,134,33,4,F+F-,4
20.643835616438356,Adults,1037,j,inconCON_FearZero,INCONcon_FearReward,right_face,0.37702468405350786,on_time,1,ic,1,1037,135,34,4,F+F-,4
20.643835616438356,Adults,1004,j,inconCON_FearZero,INCONcon_FearReward,right_face,0.7771498826974041,on_time,0,ic,1,1004,138,35,4,F+F-,4
20.643835616438356,Adults,1079,f,INCONcon_FearReward,inconCON_FearZero,left_face,0.9001855350928809,on_time,0,ic,1,1079,139,36,4,F+F-,4
20.643835616438356,Adults,581,j,inconCON_FearZero,INCONcon_FearReward,right_face,0.16301691961904077,on_time,1,ic,1,581,140,37,5,F+F-,4
20.643835616438356,Adults,1456,f,INCONcon_FearReward,inconCON_FearZero,left_face,0.47731282149230125,on_time,1,ic,1,1456,146,38,5,F+F-,4
20.643835616438356,Adults,945,j,inconCON_FearZero,INCONcon_FearReward,right_face,0.709905601918791,on_time,1,ic,1,945,154,39,5,F+F-,4
20.643835616438356,Adults,829,f,INCONcon_FearReward,inconCON_FearZero,left_face,0.315432493230563,on_time,1,ic,1,829,156,40,5,F+F-,4
20.643835616438356,Adults,865,j,inconCON_FearZero,INCONcon_FearReward,right_face,0.2653643544459696,on_time,1,ic,1,865,161,41,5,F+F-,4
20.643835616438356,Adults,1417,f,INCONcon_FearReward,inconCON_FearZero,left_face,0.642840024036494,on_time,1,ic,1,1417,164,42,5,F+F-,4
20.643835616438356,Adults,1062,j,inconCON_FearZero,INCONcon_FearReward,right_face,0.13024757865432068,on_time,1,ic,1,1062,165,43,5,F+F-,4
20.643835616438356,Adults,869,j,inconCON_FearZero,INCONcon_FearReward,right_face,0.15898867578283382,on_time,1,ic,1,869,166,44,5,F+F-,4
20.643835616438356,Adults,1278,f,INCONcon_FearReward,inconCON_FearZero,left_face,0.42961155729179534,on_time,1,ic,1,1278,172,45,5,F+F-,4
20.643835616438356,Adults,1739,f,inconINCON_HappyZero,INCONincon_FearReward,right_face,0.09760475498640586,on_time,0,ii,0,1739,4,1,1,F+H-,4
20.643835616438356,Adults,1995,f,inconINCON_HappyZero,INCONincon_FearReward,right_face,0.1581622193674661,on_time,0,ii,0,1995,17,2,1,F+H-,4
20.643835616438356,Adults,2920,j,inconINCON_HappyZero,INCONincon_FearReward,right_face,0.828384272119771,on_time,0,ii,1,2920,18,3,1,F+H-,4
20.643835616438356,Adults,2722,f,INCONincon_FearReward,inconINCON_HappyZero,left_face,0.445457654803473,on_time,1,ii,1,2722,21,4,1,F+H-,4
20.643835616438356,Adults,1302,f,INCONincon_FearReward,inconINCON_HappyZero,left_face,0.842771661343579,on_time,0,ii,1,1302,22,5,1,F+H-,4
20.643835616438356,Adults,1166,j,INCONincon_FearReward,inconINCON_HappyZero,left_face,0.4103600740116351,on_time,0,ii,0,1166,23,6,1,F+H-,4
20.643835616438356,Adults,1244,f,INCONincon_FearReward,inconINCON_HappyZero,left_face,0.1522245611161228,on_time,1,ii,1,1244,31,7,1,F+H-,4
20.643835616438356,Adults,1925,f,INCONincon_FearReward,inconINCON_HappyZero,left_face,0.6733842407881765,on_time,1,ii,1,1925,35,8,1,F+H-,4
20.643835616438356,Adults,2475,j,INCONincon_FearReward,inconINCON_HappyZero,left_face,0.3702856278741953,on_time,0,ii,0,2475,36,9,1,F+H-,4
20.643835616438356,Adults,974,f,INCONincon_FearReward,inconINCON_HappyZero,left_face,0.09777946692846018,on_time,1,ii,1,974,41,10,2,F+H-,4
20.643835616438356,Adults,2410,j,inconINCON_HappyZero,INCONincon_FearReward,right_face,0.7678032713982574,on_time,0,ii,1,2410,43,11,2,F+H-,4
20.643835616438356,Adults,1543,j,inconINCON_HappyZero,INCONincon_FearReward,right_face,0.6212090709029077,on_time,1,ii,1,1543,52,12,2,F+H-,4
20.643835616438356,Adults,1322,f,INCONincon_FearReward,inconINCON_HappyZero,left_face,0.9824345861696346,on_time,0,ii,1,1322,54,13,2,F+H-,4
20.643835616438356,Adults,109,j,inconINCON_HappyZero,INCONincon_FearReward,right_face,0.3984418912076193,late_choose_now,1,ii,1,NA,58,14,2,F+H-,4
20.643835616438356,Adults,2622,j,INCONincon_FearReward,inconINCON_HappyZero,left_face,0.7047395538532504,on_time,0,ii,0,2622,59,15,2,F+H-,4
20.643835616438356,Adults,1207,j,inconINCON_HappyZero,INCONincon_FearReward,right_face,0.36282719489922366,on_time,1,ii,1,1207,63,16,2,F+H-,4
20.643835616438356,Adults,974,f,INCONincon_FearReward,inconINCON_HappyZero,left_face,0.6092495971910294,on_time,1,ii,1,974,66,17,2,F+H-,4
20.643835616438356,Adults,1140,f,INCONincon_FearReward,inconINCON_HappyZero,left_face,0.3812750831861514,on_time,1,ii,1,1140,68,18,2,F+H-,4
20.643835616438356,Adults,1240,j,inconINCON_HappyZero,INCONincon_FearReward,right_face,0.6582509972491246,on_time,1,ii,1,1240,75,19,3,F+H-,4
20.643835616438356,Adults,1438,j,inconINCON_HappyZero,INCONincon_FearReward,right_face,0.7387488368869604,on_time,1,ii,1,1438,78,20,3,F+H-,4
20.643835616438356,Adults,1560,j,inconINCON_HappyZero,INCONincon_FearReward,right_face,0.5078962215839635,on_time,1,ii,1,1560,88,21,3,F+H-,4
20.643835616438356,Adults,1123,f,INCONincon_FearReward,inconINCON_HappyZero,left_face,0.20527268454063696,on_time,1,ii,1,1123,92,22,3,F+H-,4
20.643835616438356,Adults,864,f,INCONincon_FearReward,inconINCON_HappyZero,left_face,0.9800834789204236,on_time,0,ii,1,864,95,23,3,F+H-,4
20.643835616438356,Adults,1126,f,INCONincon_FearReward,inconINCON_HappyZero,left_face,0.34193898531400646,on_time,1,ii,1,1126,99,24,3,F+H-,4
20.643835616438356,Adults,1400,j,inconINCON_HappyZero,INCONincon_FearReward,right_face,0.03878644733836833,on_time,1,ii,1,1400,103,25,3,F+H-,4
20.643835616438356,Adults,1201,f,INCONincon_FearReward,inconINCON_HappyZero,left_face,0.6916478775169408,on_time,1,ii,1,1201,113,26,3,F+H-,4
20.643835616438356,Adults,966,j,inconINCON_HappyZero,INCONincon_FearReward,right_face,0.4590683272747993,on_time,1,ii,1,966,115,27,3,F+H-,4
20.643835616438356,Adults,945,j,inconINCON_HappyZero,INCONincon_FearReward,right_face,0.858544150784069,on_time,0,ii,1,945,116,28,4,F+H-,4
20.643835616438356,Adults,789,j,inconINCON_HappyZero,INCONincon_FearReward,right_face,0.02270740210809529,on_time,1,ii,1,789,118,29,4,F+H-,4
20.643835616438356,Adults,1038,j,inconINCON_HappyZero,INCONincon_FearReward,right_face,0.991485095783926,on_time,0,ii,1,1038,120,30,4,F+H-,4
20.643835616438356,Adults,952,j,INCONincon_FearReward,inconINCON_HappyZero,left_face,0.8976228448261911,on_time,1,ii,0,952,122,31,4,F+H-,4
20.643835616438356,Adults,1044,f,INCONincon_FearReward,inconINCON_HappyZero,left_face,0.6010131548799686,on_time,1,ii,1,1044,127,32,4,F+H-,4
20.643835616438356,Adults,692,j,inconINCON_HappyZero,INCONincon_FearReward,right_face,0.23181460570345735,on_time,1,ii,1,692,128,33,4,F+H-,4
20.643835616438356,Adults,650,f,INCONincon_FearReward,inconINCON_HappyZero,left_face,0.7952727669827022,on_time,0,ii,1,650,136,34,4,F+H-,4
20.643835616438356,Adults,1164,j,inconINCON_HappyZero,INCONincon_FearReward,right_face,0.11078478836357264,on_time,1,ii,1,1164,151,35,4,F+H-,4
20.643835616438356,Adults,660,f,INCONincon_FearReward,inconINCON_HappyZero,left_face,0.6892025242057556,on_time,1,ii,1,660,152,36,4,F+H-,4
20.643835616438356,Adults,674,f,INCONincon_FearReward,inconINCON_HappyZero,left_face,0.7907325506072538,on_time,0,ii,1,674,153,37,5,F+H-,4
20.643835616438356,Adults,863,f,INCONincon_FearReward,inconINCON_HappyZero,left_face,0.8943557796953516,on_time,0,ii,1,863,159,38,5,F+H-,4
20.643835616438356,Adults,634,f,INCONincon_FearReward,inconINCON_HappyZero,left_face,0.17561732513840322,on_time,1,ii,1,634,160,39,5,F+H-,4
20.643835616438356,Adults,661,f,INCONincon_FearReward,inconINCON_HappyZero,left_face,0.39301503477718946,on_time,1,ii,1,661,163,40,5,F+H-,4
20.643835616438356,Adults,750,f,INCONincon_FearReward,inconINCON_HappyZero,left_face,0.328984542685794,on_time,1,ii,1,750,167,41,5,F+H-,4
20.643835616438356,Adults,1178,j,inconINCON_HappyZero,INCONincon_FearReward,right_face,0.8100369000184611,on_time,0,ii,1,1178,170,42,5,F+H-,4
20.643835616438356,Adults,1259,j,inconINCON_HappyZero,INCONincon_FearReward,right_face,0.8082137752790777,on_time,0,ii,1,1259,174,43,5,F+H-,4
20.643835616438356,Adults,1012,j,inconINCON_HappyZero,INCONincon_FearReward,right_face,0.7960253465601603,on_time,0,ii,1,1012,176,44,5,F+H-,4
20.643835616438356,Adults,909,j,inconINCON_HappyZero,INCONincon_FearReward,right_face,0.05199460151419344,on_time,1,ii,1,909,177,45,5,F+H-,4
21.005479452054793,Adults,1283,j,conCON_FearZero,CONcon_HappyReward,right_face,0.4951794116503168,late_choose_now,1,cc,1,NA,5,1,1,H+F-,5
21.005479452054793,Adults,656,f,CONcon_HappyReward,conCON_FearZero,left_face,0.3420453283411715,on_time,1,cc,1,656,12,2,1,H+F-,5
21.005479452054793,Adults,1914,f,CONcon_HappyReward,conCON_FearZero,left_face,0.6944784406230593,on_time,1,cc,1,1914,14,3,1,H+F-,5
21.005479452054793,Adults,864,j,CONcon_HappyReward,conCON_FearZero,left_face,0.6936369543589955,on_time,0,cc,0,864,15,4,1,H+F-,5
21.005479452054793,Adults,955,j,conCON_FearZero,CONcon_HappyReward,right_face,0.8095716847163943,on_time,0,cc,1,955,18,5,1,H+F-,5
21.005479452054793,Adults,438,j,conCON_FearZero,CONcon_HappyReward,right_face,0.5124851702100279,on_time,1,cc,1,438,21,6,1,H+F-,5
21.005479452054793,Adults,651,j,conCON_FearZero,CONcon_HappyReward,right_face,0.7842648310507667,on_time,0,cc,1,651,22,7,1,H+F-,5
21.005479452054793,Adults,785,f,CONcon_HappyReward,conCON_FearZero,left_face,0.1443324365381573,on_time,1,cc,1,785,28,8,1,H+F-,5
21.005479452054793,Adults,680,f,conCON_FearZero,CONcon_HappyReward,right_face,0.7355974971713419,on_time,0,cc,0,680,29,9,1,H+F-,5
21.005479452054793,Adults,1264,j,conCON_FearZero,CONcon_HappyReward,right_face,0.34644797759394574,on_time,1,cc,1,1264,34,10,2,H+F-,5
21.005479452054793,Adults,1701,f,conCON_FearZero,CONcon_HappyReward,right_face,0.8917189392686566,on_time,1,cc,0,1701,41,11,2,H+F-,5
21.005479452054793,Adults,2918,f,CONcon_HappyReward,conCON_FearZero,left_face,0.5212324357018765,on_time,1,cc,1,2918,46,12,2,H+F-,5
